Subject,Condition,word,wordType,grammarType,trial,nounAnswer,nounAnswer2,accuracy,rt
AAM01,AAM,acerbicstep12,critical,notNoun,84,0,notNoun,1,1885
AAM01,AAM,alone,filler,notNoun,55,0,notNoun,1,1437
AAM01,AAM,america,filler,noun,48,1,noun,1,900
AAM01,AAM,anemia,filler,noun,1,1,noun,1,1390
AAM01,AAM,animal,filler,noun,59,1,noun,1,644
AAM01,AAM,annoying,filler,notNoun,24,0,notNoun,1,1463
AAM01,AAM,appear,filler,notNoun,88,0,notNoun,1,1054
AAM01,AAM,around,filler,notNoun,82,0,notNoun,1,1180
AAM01,AAM,avenue,filler,noun,32,1,noun,1,1113
AAM01,AAM,bakery,filler,noun,57,1,noun,1,739
AAM01,AAM,ballerina,filler,noun,21,1,noun,1,759
AAM01,AAM,basementstep11,critical,noun,25,1,noun,1,821
AAM01,AAM,beauty,filler,noun,4,1,noun,1,2548
AAM01,AAM,become,filler,notNoun,13,0,notNoun,1,1982
AAM01,AAM,brain,filler,noun,69,1,noun,1,783
AAM01,AAM,camera,filler,noun,6,1,noun,1,979
AAM01,AAM,casserolestep12,critical,noun,86,1,noun,1,896
AAM01,AAM,ciderstep9,critical,noun,94,0,notNoun,0,1213
AAM01,AAM,degree,filler,noun,30,1,noun,1,2171
AAM01,AAM,depend,filler,notNoun,76,0,notNoun,1,4197
AAM01,AAM,develop,filler,notNoun,81,0,notNoun,1,1350
AAM01,AAM,document,filler,noun,20,1,noun,1,2058
AAM01,AAM,dragon,filler,noun,99,1,noun,1,808
AAM01,AAM,embody,filler,notNoun,75,0,notNoun,1,1255
AAM01,AAM,energy,filler,noun,58,1,noun,1,1123
AAM01,AAM,engine,filler,noun,70,1,noun,1,1019
AAM01,AAM,enroll,filler,notNoun,80,0,notNoun,1,1114
AAM01,AAM,eternal,filler,notNoun,78,1,noun,0,898
AAM01,AAM,evolve,filler,notNoun,15,1,noun,0,1767
AAM01,AAM,failure,filler,noun,33,1,noun,1,1131
AAM01,AAM,family,filler,noun,27,1,noun,1,927
AAM01,AAM,felony,filler,noun,74,1,noun,1,880
AAM01,AAM,freeze,filler,notNoun,98,0,notNoun,1,1154
AAM01,AAM,fumble,filler,notNoun,42,0,notNoun,1,1296
AAM01,AAM,garden,filler,noun,68,1,noun,1,781
AAM01,AAM,gasolinestep11,critical,noun,3,1,noun,1,844
AAM01,AAM,global,filler,notNoun,89,1,noun,0,701
AAM01,AAM,grapple,filler,notNoun,23,0,notNoun,1,1353
AAM01,AAM,guilty,filler,notNoun,38,1,noun,0,1197
AAM01,AAM,gullible,filler,notNoun,47,1,noun,0,1199
AAM01,AAM,hamburger,filler,noun,14,1,noun,1,1008
AAM01,AAM,harmful,filler,notNoun,37,1,noun,0,1079
AAM01,AAM,hidden,filler,notNoun,60,0,notNoun,1,927
AAM01,AAM,honeymoon,filler,noun,65,1,noun,1,1080
AAM01,AAM,human,filler,noun,17,1,noun,1,795
AAM01,AAM,ignore,filler,notNoun,29,1,noun,0,1203
AAM01,AAM,image,filler,noun,73,1,noun,1,654
AAM01,AAM,immoral,filler,notNoun,9,1,noun,0,942
AAM01,AAM,immune,filler,notNoun,92,1,noun,0,914
AAM01,AAM,ironic,filler,notNoun,45,1,noun,0,1255
AAM01,AAM,kidnap,filler,notNoun,31,0,notNoun,1,957
AAM01,AAM,lawyer,filler,noun,2,1,noun,1,937
AAM01,AAM,lunatic,filler,notNoun,83,1,noun,0,1615
AAM01,AAM,manually,filler,notNoun,96,0,notNoun,1,1036
AAM01,AAM,marina,filler,noun,44,1,noun,1,986
AAM01,AAM,military,filler,noun,35,1,noun,1,715
AAM01,AAM,mineral,filler,noun,52,1,noun,1,995
AAM01,AAM,momentary,filler,notNoun,28,0,notNoun,1,2375
AAM01,AAM,occupy,filler,notNoun,46,0,notNoun,1,996
AAM01,AAM,omelet,filler,noun,19,1,noun,1,872
AAM01,AAM,opaque,filler,notNoun,62,1,noun,0,1550
AAM01,AAM,orbital,filler,notNoun,67,1,noun,0,1413
AAM01,AAM,overcome,filler,notNoun,93,0,notNoun,1,904
AAM01,AAM,parable,filler,noun,56,1,noun,1,1201
AAM01,AAM,parrot,filler,noun,5,1,noun,1,885
AAM01,AAM,pineapple,filler,noun,7,1,noun,1,1155
AAM01,AAM,recovery,filler,noun,39,1,noun,1,1411
AAM01,AAM,regular,filler,notNoun,54,1,noun,0,1408
AAM01,AAM,relate,filler,notNoun,90,0,notNoun,1,1248
AAM01,AAM,remedial,filler,notNoun,49,1,noun,0,1384
AAM01,AAM,remind,filler,notNoun,18,0,notNoun,1,776
AAM01,AAM,romantic,filler,notNoun,79,1,noun,0,863
AAM01,AAM,royalty,filler,noun,72,1,noun,1,1231
AAM01,AAM,sabrestep10,critical,noun,50,1,noun,1,1165
AAM01,AAM,saltystep14,critical,notNoun,34,0,notNoun,1,1143
AAM01,AAM,sandalstep11,critical,noun,11,0,notNoun,0,1593
AAM01,AAM,seaweedstep12,critical,noun,16,1,noun,1,1113
AAM01,AAM,secludedstep10,critical,notNoun,0,0,notNoun,1,2013
AAM01,AAM,secondstep11,critical,noun,51,1,noun,1,939
AAM01,AAM,severalstep9,critical,notNoun,36,0,notNoun,1,1827
AAM01,AAM,sidewalkstep8,critical,noun,8,1,noun,1,1283
AAM01,AAM,silverstep10,critical,noun,26,1,noun,1,1010
AAM01,AAM,similarstep10,critical,notNoun,12,0,notNoun,1,1014
AAM01,AAM,solidstep12,critical,notNoun,53,1,noun,0,1146
AAM01,AAM,submarinestep10,critical,noun,22,1,noun,1,1457
AAM01,AAM,sufferstep8,critical,notNoun,97,0,notNoun,1,1499
AAM01,AAM,superpowerstep12,critical,noun,41,1,noun,1,1115
AAM01,AAM,surrenderstep8,critical,notNoun,43,0,notNoun,1,1336
AAM01,AAM,tobacco,filler,noun,77,1,noun,1,1071
AAM01,AAM,totally,filler,notNoun,91,1,noun,0,803
AAM01,AAM,tutorial,filler,noun,85,1,noun,1,1181
AAM01,AAM,typical,filler,notNoun,95,0,notNoun,1,1284
AAM01,AAM,umbrella,filler,noun,66,1,noun,1,743
AAM01,AAM,unique,filler,notNoun,61,0,notNoun,1,2351
AAM01,AAM,vibrant,filler,notNoun,87,1,noun,0,783
AAM01,AAM,warrantee,filler,noun,71,1,noun,1,1897
AAM01,AAM,weekly,filler,notNoun,64,0,notNoun,1,1465
AAM01,AAM,wrinkle,filler,noun,40,1,noun,1,727
AAM01,AAM,yell,filler,notNoun,63,0,notNoun,1,1077
AAM01,AAM,yoghurt,filler,noun,10,1,noun,1,709
AAM02,AAM,acerbicstep12,critical,notNoun,84,0,notNoun,1,1791
AAM02,AAM,alone,filler,notNoun,55,0,notNoun,1,1302
AAM02,AAM,america,filler,noun,48,1,noun,1,1593
AAM02,AAM,anemia,filler,noun,1,0,notNoun,0,1082
AAM02,AAM,animal,filler,noun,59,1,noun,1,686
AAM02,AAM,annoying,filler,notNoun,24,0,notNoun,1,873
AAM02,AAM,appear,filler,notNoun,88,0,notNoun,1,932
AAM02,AAM,around,filler,notNoun,82,0,notNoun,1,811
AAM02,AAM,avenue,filler,noun,32,0,notNoun,0,1747
AAM02,AAM,bakery,filler,noun,57,1,noun,1,855
AAM02,AAM,ballerina,filler,noun,21,1,noun,1,717
AAM02,AAM,basementstep11,critical,noun,25,1,noun,1,746
AAM02,AAM,beauty,filler,noun,4,0,notNoun,0,2411
AAM02,AAM,become,filler,notNoun,13,0,notNoun,1,1631
AAM02,AAM,brain,filler,noun,69,1,noun,1,1239
AAM02,AAM,camera,filler,noun,6,1,noun,1,788
AAM02,AAM,casserolestep12,critical,noun,86,1,noun,1,1182
AAM02,AAM,ciderstep9,critical,noun,94,0,notNoun,0,1965
AAM02,AAM,degree,filler,noun,30,1,noun,1,1555
AAM02,AAM,depend,filler,notNoun,76,0,notNoun,1,2010
AAM02,AAM,develop,filler,notNoun,81,0,notNoun,1,1084
AAM02,AAM,document,filler,noun,20,1,noun,1,2175
AAM02,AAM,dragon,filler,noun,99,1,noun,1,865
AAM02,AAM,embody,filler,notNoun,75,0,notNoun,1,1137
AAM02,AAM,energy,filler,noun,58,0,notNoun,0,922
AAM02,AAM,engine,filler,noun,70,1,noun,1,967
AAM02,AAM,enroll,filler,notNoun,80,0,notNoun,1,911
AAM02,AAM,eternal,filler,notNoun,78,0,notNoun,1,1209
AAM02,AAM,evolve,filler,notNoun,15,0,notNoun,1,1152
AAM02,AAM,failure,filler,noun,33,0,notNoun,0,1393
AAM02,AAM,family,filler,noun,27,1,noun,1,1031
AAM02,AAM,felony,filler,noun,74,0,notNoun,0,1068
AAM02,AAM,freeze,filler,notNoun,98,0,notNoun,1,1449
AAM02,AAM,fumble,filler,notNoun,42,0,notNoun,1,1223
AAM02,AAM,garden,filler,noun,68,1,noun,1,1230
AAM02,AAM,gasolinestep11,critical,noun,3,1,noun,1,800
AAM02,AAM,global,filler,notNoun,89,0,notNoun,1,1700
AAM02,AAM,grapple,filler,notNoun,23,0,notNoun,1,2184
AAM02,AAM,guilty,filler,notNoun,38,0,notNoun,1,888
AAM02,AAM,gullible,filler,notNoun,47,0,notNoun,1,648
AAM02,AAM,hamburger,filler,noun,14,1,noun,1,966
AAM02,AAM,harmful,filler,notNoun,37,0,notNoun,1,1111
AAM02,AAM,hidden,filler,notNoun,60,0,notNoun,1,1154
AAM02,AAM,honeymoon,filler,noun,65,0,notNoun,0,1290
AAM02,AAM,human,filler,noun,17,1,noun,1,703
AAM02,AAM,ignore,filler,notNoun,29,0,notNoun,1,818
AAM02,AAM,image,filler,noun,73,1,noun,1,973
AAM02,AAM,immoral,filler,notNoun,9,0,notNoun,1,1006
AAM02,AAM,immune,filler,notNoun,92,0,notNoun,1,2511
AAM02,AAM,ironic,filler,notNoun,45,0,notNoun,1,1044
AAM02,AAM,kidnap,filler,notNoun,31,0,notNoun,1,1005
AAM02,AAM,lawyer,filler,noun,2,1,noun,1,917
AAM02,AAM,lunatic,filler,notNoun,83,1,noun,0,1828
AAM02,AAM,manually,filler,notNoun,96,0,notNoun,1,1082
AAM02,AAM,marina,filler,noun,44,1,noun,1,1095
AAM02,AAM,military,filler,noun,35,1,noun,1,910
AAM02,AAM,mineral,filler,noun,52,1,noun,1,979
AAM02,AAM,momentary,filler,notNoun,28,0,notNoun,1,1468
AAM02,AAM,occupy,filler,notNoun,46,0,notNoun,1,1118
AAM02,AAM,omelet,filler,noun,19,1,noun,1,977
AAM02,AAM,opaque,filler,notNoun,62,0,notNoun,1,1575
AAM02,AAM,orbital,filler,notNoun,67,0,notNoun,1,914
AAM02,AAM,overcome,filler,notNoun,93,0,notNoun,1,960
AAM02,AAM,parable,filler,noun,56,0,notNoun,0,1560
AAM02,AAM,parrot,filler,noun,5,1,noun,1,794
AAM02,AAM,pineapple,filler,noun,7,1,noun,1,935
AAM02,AAM,recovery,filler,noun,39,0,notNoun,0,1235
AAM02,AAM,regular,filler,notNoun,54,0,notNoun,1,1883
AAM02,AAM,relate,filler,notNoun,90,0,notNoun,1,1298
AAM02,AAM,remedial,filler,notNoun,49,0,notNoun,1,1280
AAM02,AAM,remind,filler,notNoun,18,0,notNoun,1,947
AAM02,AAM,romantic,filler,notNoun,79,0,notNoun,1,1144
AAM02,AAM,royalty,filler,noun,72,1,noun,1,2082
AAM02,AAM,sabrestep10,critical,noun,50,0,notNoun,0,2250
AAM02,AAM,saltystep14,critical,notNoun,34,0,notNoun,1,1586
AAM02,AAM,sandalstep11,critical,noun,11,1,noun,1,1005
AAM02,AAM,seaweedstep12,critical,noun,16,1,noun,1,1250
AAM02,AAM,secludedstep10,critical,notNoun,0,0,notNoun,1,1227
AAM02,AAM,secondstep11,critical,noun,51,0,notNoun,0,1308
AAM02,AAM,severalstep9,critical,notNoun,36,0,notNoun,1,1487
AAM02,AAM,sidewalkstep8,critical,noun,8,1,noun,1,2129
AAM02,AAM,silverstep10,critical,noun,26,1,noun,1,943
AAM02,AAM,similarstep10,critical,notNoun,12,0,notNoun,1,1422
AAM02,AAM,solidstep12,critical,notNoun,53,1,noun,0,1319
AAM02,AAM,submarinestep10,critical,noun,22,1,noun,1,1429
AAM02,AAM,sufferstep8,critical,notNoun,97,0,notNoun,1,946
AAM02,AAM,superpowerstep12,critical,noun,41,0,notNoun,0,1210
AAM02,AAM,surrenderstep8,critical,notNoun,43,0,notNoun,1,923
AAM02,AAM,tobacco,filler,noun,77,1,noun,1,1043
AAM02,AAM,totally,filler,notNoun,91,0,notNoun,1,1295
AAM02,AAM,tutorial,filler,noun,85,0,notNoun,0,991
AAM02,AAM,typical,filler,notNoun,95,0,notNoun,1,758
AAM02,AAM,umbrella,filler,noun,66,1,noun,1,771
AAM02,AAM,unique,filler,notNoun,61,0,notNoun,1,1267
AAM02,AAM,vibrant,filler,notNoun,87,0,notNoun,1,984
AAM02,AAM,warrantee,filler,noun,71,1,noun,1,1813
AAM02,AAM,weekly,filler,notNoun,64,0,notNoun,1,1020
AAM02,AAM,wrinkle,filler,noun,40,0,notNoun,0,922
AAM02,AAM,yell,filler,notNoun,63,1,noun,0,1054
AAM02,AAM,yoghurt,filler,noun,10,1,noun,1,1172
AAM03,AAM,acerbicstep12,critical,notNoun,51,0,notNoun,1,1821
AAM03,AAM,alone,filler,notNoun,81,0,notNoun,1,1555
AAM03,AAM,america,filler,noun,87,1,noun,1,1353
AAM03,AAM,anemia,filler,noun,67,1,noun,1,1631
AAM03,AAM,animal,filler,noun,29,1,noun,1,969
AAM03,AAM,annoying,filler,notNoun,79,0,notNoun,1,1040
AAM03,AAM,appear,filler,notNoun,2,0,notNoun,1,1355
AAM03,AAM,around,filler,notNoun,19,1,noun,0,1444
AAM03,AAM,avenue,filler,noun,78,1,noun,1,1695
AAM03,AAM,bakery,filler,noun,96,1,noun,1,831
AAM03,AAM,ballerina,filler,noun,43,1,noun,1,845
AAM03,AAM,basementstep11,critical,noun,18,1,noun,1,953
AAM03,AAM,beauty,filler,noun,59,0,notNoun,0,984
AAM03,AAM,become,filler,notNoun,73,0,notNoun,1,1252
AAM03,AAM,brain,filler,noun,0,1,noun,1,1004
AAM03,AAM,camera,filler,noun,26,1,noun,1,945
AAM03,AAM,casserolestep12,critical,noun,54,1,noun,1,1179
AAM03,AAM,ciderstep9,critical,noun,4,1,noun,1,1057
AAM03,AAM,degree,filler,noun,23,1,noun,1,1311
AAM03,AAM,depend,filler,notNoun,58,0,notNoun,1,1657
AAM03,AAM,develop,filler,notNoun,25,0,notNoun,1,1169
AAM03,AAM,document,filler,noun,11,1,noun,1,1062
AAM03,AAM,dragon,filler,noun,92,1,noun,1,1323
AAM03,AAM,embody,filler,notNoun,80,0,notNoun,1,1413
AAM03,AAM,energy,filler,noun,30,1,noun,1,1520
AAM03,AAM,engine,filler,noun,72,1,noun,1,1235
AAM03,AAM,enroll,filler,notNoun,22,0,notNoun,1,1244
AAM03,AAM,eternal,filler,notNoun,33,0,notNoun,1,1200
AAM03,AAM,evolve,filler,notNoun,13,0,notNoun,1,1549
AAM03,AAM,failure,filler,noun,49,1,noun,1,1225
AAM03,AAM,family,filler,noun,5,1,noun,1,1097
AAM03,AAM,felony,filler,noun,3,1,noun,1,1788
AAM03,AAM,freeze,filler,notNoun,36,0,notNoun,1,1916
AAM03,AAM,fumble,filler,notNoun,60,0,notNoun,1,1046
AAM03,AAM,garden,filler,noun,32,1,noun,1,1444
AAM03,AAM,gasolinestep11,critical,noun,82,1,noun,1,1174
AAM03,AAM,global,filler,notNoun,8,0,notNoun,1,1406
AAM03,AAM,grapple,filler,notNoun,50,0,notNoun,1,1819
AAM03,AAM,guilty,filler,notNoun,56,0,notNoun,1,1474
AAM03,AAM,gullible,filler,notNoun,93,0,notNoun,1,902
AAM03,AAM,hamburger,filler,noun,46,1,noun,1,1046
AAM03,AAM,harmful,filler,notNoun,68,0,notNoun,1,2058
AAM03,AAM,hidden,filler,notNoun,52,1,noun,0,1755
AAM03,AAM,honeymoon,filler,noun,94,1,noun,1,1452
AAM03,AAM,human,filler,noun,6,1,noun,1,1503
AAM03,AAM,ignore,filler,notNoun,75,0,notNoun,1,1036
AAM03,AAM,image,filler,noun,66,1,noun,1,968
AAM03,AAM,immoral,filler,notNoun,70,0,notNoun,1,1547
AAM03,AAM,immune,filler,notNoun,48,0,notNoun,1,2431
AAM03,AAM,ironic,filler,notNoun,44,0,notNoun,1,1594
AAM03,AAM,kidnap,filler,notNoun,12,0,notNoun,1,1469
AAM03,AAM,lawyer,filler,noun,55,1,noun,1,1142
AAM03,AAM,lunatic,filler,notNoun,90,1,noun,0,1282
AAM03,AAM,manually,filler,notNoun,77,0,notNoun,1,1263
AAM03,AAM,marina,filler,noun,63,0,notNoun,0,1396
AAM03,AAM,military,filler,noun,1,1,noun,1,1008
AAM03,AAM,mineral,filler,noun,35,1,noun,1,1005
AAM03,AAM,momentary,filler,notNoun,97,0,notNoun,1,1519
AAM03,AAM,occupy,filler,notNoun,47,0,notNoun,1,1638
AAM03,AAM,omelet,filler,noun,27,1,noun,1,836
AAM03,AAM,opaque,filler,notNoun,85,0,notNoun,1,1409
AAM03,AAM,orbital,filler,notNoun,37,1,noun,0,1488
AAM03,AAM,overcome,filler,notNoun,76,0,notNoun,1,1427
AAM03,AAM,parable,filler,noun,99,0,notNoun,0,1248
AAM03,AAM,parrot,filler,noun,31,1,noun,1,846
AAM03,AAM,pineapple,filler,noun,34,1,noun,1,1361
AAM03,AAM,recovery,filler,noun,28,1,noun,1,2390
AAM03,AAM,regular,filler,notNoun,88,0,notNoun,1,1427
AAM03,AAM,relate,filler,notNoun,17,0,notNoun,1,1285
AAM03,AAM,remedial,filler,notNoun,71,0,notNoun,1,1317
AAM03,AAM,remind,filler,notNoun,61,0,notNoun,1,937
AAM03,AAM,romantic,filler,notNoun,40,0,notNoun,1,1295
AAM03,AAM,royalty,filler,noun,7,1,noun,1,1835
AAM03,AAM,sabrestep10,critical,noun,39,0,notNoun,0,2137
AAM03,AAM,saltystep14,critical,notNoun,62,0,notNoun,1,1325
AAM03,AAM,sandalstep11,critical,noun,83,1,noun,1,1495
AAM03,AAM,seaweedstep12,critical,noun,9,1,noun,1,1255
AAM03,AAM,secludedstep10,critical,notNoun,57,0,notNoun,1,1939
AAM03,AAM,secondstep11,critical,noun,98,0,notNoun,0,1471
AAM03,AAM,severalstep9,critical,notNoun,45,0,notNoun,1,1848
AAM03,AAM,sidewalkstep8,critical,noun,38,1,noun,1,1276
AAM03,AAM,silverstep10,critical,noun,89,1,noun,1,1139
AAM03,AAM,similarstep10,critical,notNoun,69,0,notNoun,1,1276
AAM03,AAM,solidstep12,critical,notNoun,84,0,notNoun,1,1586
AAM03,AAM,submarinestep10,critical,noun,14,1,noun,1,1083
AAM03,AAM,sufferstep8,critical,notNoun,21,0,notNoun,1,1203
AAM03,AAM,superpowerstep12,critical,noun,20,0,notNoun,0,39
AAM03,AAM,surrenderstep8,critical,notNoun,53,0,notNoun,1,1122
AAM03,AAM,tobacco,filler,noun,64,1,noun,1,1222
AAM03,AAM,totally,filler,notNoun,15,0,notNoun,1,1073
AAM03,AAM,tutorial,filler,noun,41,1,noun,1,1491
AAM03,AAM,typical,filler,notNoun,42,0,notNoun,1,1062
AAM03,AAM,umbrella,filler,noun,10,1,noun,1,1018
AAM03,AAM,unique,filler,notNoun,74,0,notNoun,1,1414
AAM03,AAM,vibrant,filler,notNoun,16,0,notNoun,1,1298
AAM03,AAM,warrantee,filler,noun,65,1,noun,1,1689
AAM03,AAM,weekly,filler,notNoun,86,0,notNoun,1,1609
AAM03,AAM,wrinkle,filler,noun,24,0,notNoun,0,1033
AAM03,AAM,yell,filler,notNoun,91,1,noun,0,1309
AAM03,AAM,yoghurt,filler,noun,95,1,noun,1,904
AAM04,AAM,acerbicstep12,critical,notNoun,51,0,notNoun,1,1159
AAM04,AAM,alone,filler,notNoun,81,0,notNoun,1,1254
AAM04,AAM,america,filler,noun,87,1,noun,1,2330
AAM04,AAM,anemia,filler,noun,67,0,notNoun,0,1324
AAM04,AAM,animal,filler,noun,29,1,noun,1,1017
AAM04,AAM,annoying,filler,notNoun,79,0,notNoun,1,1221
AAM04,AAM,appear,filler,notNoun,2,0,notNoun,1,1318
AAM04,AAM,around,filler,notNoun,19,0,notNoun,1,1761
AAM04,AAM,avenue,filler,noun,78,1,noun,1,1625
AAM04,AAM,bakery,filler,noun,96,1,noun,1,830
AAM04,AAM,ballerina,filler,noun,43,1,noun,1,873
AAM04,AAM,basementstep11,critical,noun,18,1,noun,1,1078
AAM04,AAM,beauty,filler,noun,59,0,notNoun,0,1421
AAM04,AAM,become,filler,notNoun,73,0,notNoun,1,1061
AAM04,AAM,brain,filler,noun,0,1,noun,1,867
AAM04,AAM,camera,filler,noun,26,1,noun,1,997
AAM04,AAM,casserolestep12,critical,noun,54,0,notNoun,0,865
AAM04,AAM,ciderstep9,critical,noun,4,1,noun,1,1082
AAM04,AAM,degree,filler,noun,23,0,notNoun,0,1073
AAM04,AAM,depend,filler,notNoun,58,0,notNoun,1,1285
AAM04,AAM,develop,filler,notNoun,25,0,notNoun,1,1594
AAM04,AAM,document,filler,noun,11,1,noun,1,2263
AAM04,AAM,dragon,filler,noun,92,1,noun,1,1368
AAM04,AAM,embody,filler,notNoun,80,0,notNoun,1,1739
AAM04,AAM,energy,filler,noun,30,0,notNoun,0,1909
AAM04,AAM,engine,filler,noun,72,1,noun,1,1375
AAM04,AAM,enroll,filler,notNoun,22,0,notNoun,1,1211
AAM04,AAM,eternal,filler,notNoun,33,0,notNoun,1,1033
AAM04,AAM,evolve,filler,notNoun,13,0,notNoun,1,1116
AAM04,AAM,failure,filler,noun,49,0,notNoun,0,1674
AAM04,AAM,family,filler,noun,5,1,noun,1,1854
AAM04,AAM,felony,filler,noun,3,0,notNoun,0,974
AAM04,AAM,freeze,filler,notNoun,36,0,notNoun,1,2475
AAM04,AAM,fumble,filler,notNoun,60,0,notNoun,1,1380
AAM04,AAM,garden,filler,noun,32,1,noun,1,2377
AAM04,AAM,gasolinestep11,critical,noun,82,1,noun,1,1675
AAM04,AAM,global,filler,notNoun,8,0,notNoun,1,1561
AAM04,AAM,grapple,filler,notNoun,50,0,notNoun,1,1599
AAM04,AAM,guilty,filler,notNoun,56,0,notNoun,1,1434
AAM04,AAM,gullible,filler,notNoun,93,0,notNoun,1,1101
AAM04,AAM,hamburger,filler,noun,46,1,noun,1,1026
AAM04,AAM,harmful,filler,notNoun,68,0,notNoun,1,1466
AAM04,AAM,hidden,filler,notNoun,52,0,notNoun,1,1252
AAM04,AAM,honeymoon,filler,noun,94,0,notNoun,0,1367
AAM04,AAM,human,filler,noun,6,1,noun,1,849
AAM04,AAM,ignore,filler,notNoun,75,0,notNoun,1,1005
AAM04,AAM,image,filler,noun,66,1,noun,1,1265
AAM04,AAM,immoral,filler,notNoun,70,0,notNoun,1,1268
AAM04,AAM,immune,filler,notNoun,48,0,notNoun,1,1224
AAM04,AAM,ironic,filler,notNoun,44,0,notNoun,1,1129
AAM04,AAM,kidnap,filler,notNoun,12,0,notNoun,1,1751
AAM04,AAM,lawyer,filler,noun,55,1,noun,1,896
AAM04,AAM,lunatic,filler,notNoun,90,1,noun,0,1048
AAM04,AAM,manually,filler,notNoun,77,0,notNoun,1,1791
AAM04,AAM,marina,filler,noun,63,0,notNoun,0,1617
AAM04,AAM,military,filler,noun,1,0,notNoun,0,1131
AAM04,AAM,mineral,filler,noun,35,1,noun,1,1570
AAM04,AAM,momentary,filler,notNoun,97,0,notNoun,1,1289
AAM04,AAM,occupy,filler,notNoun,47,0,notNoun,1,1037
AAM04,AAM,omelet,filler,noun,27,1,noun,1,1112
AAM04,AAM,opaque,filler,notNoun,85,0,notNoun,1,1389
AAM04,AAM,orbital,filler,notNoun,37,0,notNoun,1,1234
AAM04,AAM,overcome,filler,notNoun,76,0,notNoun,1,1292
AAM04,AAM,parable,filler,noun,99,0,notNoun,0,1344
AAM04,AAM,parrot,filler,noun,31,1,noun,1,837
AAM04,AAM,pineapple,filler,noun,34,1,noun,1,1243
AAM04,AAM,recovery,filler,noun,28,0,notNoun,0,1029
AAM04,AAM,regular,filler,notNoun,88,0,notNoun,1,1246
AAM04,AAM,relate,filler,notNoun,17,0,notNoun,1,1346
AAM04,AAM,remedial,filler,notNoun,71,0,notNoun,1,1606
AAM04,AAM,remind,filler,notNoun,61,0,notNoun,1,1419
AAM04,AAM,romantic,filler,notNoun,40,0,notNoun,1,1205
AAM04,AAM,royalty,filler,noun,7,0,notNoun,0,1866
AAM04,AAM,sabrestep10,critical,noun,39,0,notNoun,0,1201
AAM04,AAM,saltystep14,critical,notNoun,62,0,notNoun,1,1200
AAM04,AAM,sandalstep11,critical,noun,83,1,noun,1,898
AAM04,AAM,seaweedstep12,critical,noun,9,0,notNoun,0,1654
AAM04,AAM,secludedstep10,critical,notNoun,57,0,notNoun,1,1451
AAM04,AAM,secondstep11,critical,noun,98,0,notNoun,0,2205
AAM04,AAM,severalstep9,critical,notNoun,45,0,notNoun,1,1797
AAM04,AAM,sidewalkstep8,critical,noun,38,1,noun,1,1432
AAM04,AAM,silverstep10,critical,noun,89,0,notNoun,0,1121
AAM04,AAM,similarstep10,critical,notNoun,69,0,notNoun,1,1310
AAM04,AAM,solidstep12,critical,notNoun,84,0,notNoun,1,1378
AAM04,AAM,submarinestep10,critical,noun,14,1,noun,1,1173
AAM04,AAM,sufferstep8,critical,notNoun,21,0,notNoun,1,1236
AAM04,AAM,superpowerstep12,critical,noun,20,0,notNoun,0,1794
AAM04,AAM,surrenderstep8,critical,notNoun,53,0,notNoun,1,1115
AAM04,AAM,tobacco,filler,noun,64,0,notNoun,0,1482
AAM04,AAM,totally,filler,notNoun,15,0,notNoun,1,1295
AAM04,AAM,tutorial,filler,noun,41,0,notNoun,0,1182
AAM04,AAM,typical,filler,notNoun,42,0,notNoun,1,970
AAM04,AAM,umbrella,filler,noun,10,0,notNoun,0,1557
AAM04,AAM,unique,filler,notNoun,74,0,notNoun,1,1143
AAM04,AAM,vibrant,filler,notNoun,16,0,notNoun,1,1711
AAM04,AAM,warrantee,filler,noun,65,0,notNoun,0,1423
AAM04,AAM,weekly,filler,notNoun,86,0,notNoun,1,1272
AAM04,AAM,wrinkle,filler,noun,24,0,notNoun,0,1692
AAM04,AAM,yell,filler,notNoun,91,0,notNoun,1,1251
AAM04,AAM,yoghurt,filler,noun,95,1,noun,1,1773
AAM05,AAM,acerbicstep12,critical,notNoun,2,0,notNoun,1,1038
AAM05,AAM,alone,filler,notNoun,37,0,notNoun,1,873
AAM05,AAM,america,filler,noun,60,1,noun,1,943
AAM05,AAM,anemia,filler,noun,82,0,notNoun,0,741
AAM05,AAM,animal,filler,noun,77,1,noun,1,748
AAM05,AAM,annoying,filler,notNoun,39,1,noun,0,681
AAM05,AAM,appear,filler,notNoun,46,0,notNoun,1,958
AAM05,AAM,around,filler,notNoun,5,1,noun,0,990
AAM05,AAM,avenue,filler,noun,45,1,noun,1,764
AAM05,AAM,bakery,filler,noun,16,1,noun,1,1144
AAM05,AAM,ballerina,filler,noun,80,1,noun,1,815
AAM05,AAM,basementstep11,critical,noun,49,1,noun,1,827
AAM05,AAM,beauty,filler,noun,97,0,notNoun,0,1308
AAM05,AAM,become,filler,notNoun,33,0,notNoun,1,1244
AAM05,AAM,brain,filler,noun,0,1,noun,1,822
AAM05,AAM,camera,filler,noun,18,1,noun,1,1081
AAM05,AAM,casserolestep12,critical,noun,54,1,noun,1,1065
AAM05,AAM,ciderstep9,critical,noun,69,1,noun,1,951
AAM05,AAM,degree,filler,noun,19,1,noun,1,1254
AAM05,AAM,depend,filler,notNoun,24,0,notNoun,1,1308
AAM05,AAM,develop,filler,notNoun,65,0,notNoun,1,1351
AAM05,AAM,document,filler,noun,90,0,notNoun,0,1267
AAM05,AAM,dragon,filler,noun,89,1,noun,1,619
AAM05,AAM,embody,filler,notNoun,25,0,notNoun,1,899
AAM05,AAM,energy,filler,noun,72,1,noun,1,1336
AAM05,AAM,engine,filler,noun,42,1,noun,1,1098
AAM05,AAM,enroll,filler,notNoun,75,0,notNoun,1,778
AAM05,AAM,eternal,filler,notNoun,68,0,notNoun,1,956
AAM05,AAM,evolve,filler,notNoun,21,0,notNoun,1,916
AAM05,AAM,failure,filler,noun,81,1,noun,1,700
AAM05,AAM,family,filler,noun,11,1,noun,1,885
AAM05,AAM,felony,filler,noun,86,0,notNoun,0,845
AAM05,AAM,freeze,filler,notNoun,9,0,notNoun,1,1073
AAM05,AAM,fumble,filler,notNoun,12,0,notNoun,1,926
AAM05,AAM,garden,filler,noun,98,1,noun,1,1011
AAM05,AAM,gasolinestep11,critical,noun,91,1,noun,1,1250
AAM05,AAM,global,filler,notNoun,62,0,notNoun,1,1336
AAM05,AAM,grapple,filler,notNoun,71,0,notNoun,1,780
AAM05,AAM,guilty,filler,notNoun,13,0,notNoun,1,816
AAM05,AAM,gullible,filler,notNoun,66,0,notNoun,1,746
AAM05,AAM,hamburger,filler,noun,78,1,noun,1,793
AAM05,AAM,harmful,filler,notNoun,99,0,notNoun,1,2212
AAM05,AAM,hidden,filler,notNoun,14,0,notNoun,1,711
AAM05,AAM,honeymoon,filler,noun,95,1,noun,1,877
AAM05,AAM,human,filler,noun,85,1,noun,1,750
AAM05,AAM,ignore,filler,notNoun,47,0,notNoun,1,869
AAM05,AAM,image,filler,noun,34,1,noun,1,1029
AAM05,AAM,immoral,filler,notNoun,67,0,notNoun,1,749
AAM05,AAM,immune,filler,notNoun,26,1,noun,0,813
AAM05,AAM,ironic,filler,notNoun,40,0,notNoun,1,940
AAM05,AAM,kidnap,filler,notNoun,52,0,notNoun,1,1052
AAM05,AAM,lawyer,filler,noun,7,1,noun,1,929
AAM05,AAM,lunatic,filler,notNoun,63,1,noun,0,1020
AAM05,AAM,manually,filler,notNoun,94,0,notNoun,1,1051
AAM05,AAM,marina,filler,noun,29,1,noun,1,860
AAM05,AAM,military,filler,noun,83,1,noun,1,1300
AAM05,AAM,mineral,filler,noun,41,1,noun,1,760
AAM05,AAM,momentary,filler,notNoun,8,0,notNoun,1,1003
AAM05,AAM,occupy,filler,notNoun,76,0,notNoun,1,866
AAM05,AAM,omelet,filler,noun,87,1,noun,1,820
AAM05,AAM,opaque,filler,notNoun,35,0,notNoun,1,786
AAM05,AAM,orbital,filler,notNoun,59,1,noun,0,1101
AAM05,AAM,overcome,filler,notNoun,3,0,notNoun,1,1178
AAM05,AAM,parable,filler,noun,30,1,noun,1,961
AAM05,AAM,parrot,filler,noun,17,1,noun,1,797
AAM05,AAM,pineapple,filler,noun,84,1,noun,1,918
AAM05,AAM,recovery,filler,noun,22,0,notNoun,0,1332
AAM05,AAM,regular,filler,notNoun,57,1,noun,0,1016
AAM05,AAM,relate,filler,notNoun,56,0,notNoun,1,1143
AAM05,AAM,remedial,filler,notNoun,55,0,notNoun,1,728
AAM05,AAM,remind,filler,notNoun,1,0,notNoun,1,822
AAM05,AAM,romantic,filler,notNoun,10,0,notNoun,1,907
AAM05,AAM,royalty,filler,noun,73,1,noun,1,1235
AAM05,AAM,sabrestep10,critical,noun,88,1,noun,1,1146
AAM05,AAM,saltystep14,critical,notNoun,15,0,notNoun,1,876
AAM05,AAM,sandalstep11,critical,noun,93,1,noun,1,968
AAM05,AAM,seaweedstep12,critical,noun,36,1,noun,1,902
AAM05,AAM,secludedstep10,critical,notNoun,51,0,notNoun,1,990
AAM05,AAM,secondstep11,critical,noun,53,0,notNoun,0,1253
AAM05,AAM,severalstep9,critical,notNoun,48,0,notNoun,1,956
AAM05,AAM,sidewalkstep8,critical,noun,38,1,noun,1,895
AAM05,AAM,silverstep10,critical,noun,64,1,noun,1,881
AAM05,AAM,similarstep10,critical,notNoun,28,1,noun,0,825
AAM05,AAM,solidstep12,critical,notNoun,20,0,notNoun,1,1103
AAM05,AAM,submarinestep10,critical,noun,61,1,noun,1,1093
AAM05,AAM,sufferstep8,critical,notNoun,74,0,notNoun,1,1186
AAM05,AAM,superpowerstep12,critical,noun,31,1,noun,1,1087
AAM05,AAM,surrenderstep8,critical,notNoun,70,1,noun,0,984
AAM05,AAM,tobacco,filler,noun,96,1,noun,1,884
AAM05,AAM,totally,filler,notNoun,79,1,noun,0,1264
AAM05,AAM,tutorial,filler,noun,43,1,noun,1,1022
AAM05,AAM,typical,filler,notNoun,27,0,notNoun,1,1016
AAM05,AAM,umbrella,filler,noun,50,1,noun,1,864
AAM05,AAM,unique,filler,notNoun,23,0,notNoun,1,896
AAM05,AAM,vibrant,filler,notNoun,92,0,notNoun,1,1822
AAM05,AAM,warrantee,filler,noun,44,1,noun,1,961
AAM05,AAM,weekly,filler,notNoun,32,1,noun,0,1372
AAM05,AAM,wrinkle,filler,noun,6,1,noun,1,852
AAM05,AAM,yell,filler,notNoun,4,0,notNoun,1,1548
AAM05,AAM,yoghurt,filler,noun,58,1,noun,1,878
AAM06,AAM,acerbicstep12,critical,notNoun,24,0,notNoun,1,1278
AAM06,AAM,alone,filler,notNoun,85,0,notNoun,1,2151
AAM06,AAM,america,filler,noun,94,1,noun,1,1623
AAM06,AAM,anemia,filler,noun,70,1,noun,1,1035
AAM06,AAM,animal,filler,noun,29,1,noun,1,756
AAM06,AAM,annoying,filler,notNoun,31,0,notNoun,1,831
AAM06,AAM,appear,filler,notNoun,71,0,notNoun,1,1085
AAM06,AAM,around,filler,notNoun,39,0,notNoun,1,1158
AAM06,AAM,avenue,filler,noun,99,1,noun,1,1061
AAM06,AAM,bakery,filler,noun,59,1,noun,1,888
AAM06,AAM,ballerina,filler,noun,28,1,noun,1,2217
AAM06,AAM,basementstep11,critical,noun,20,1,noun,1,1126
AAM06,AAM,beauty,filler,noun,82,1,noun,1,925
AAM06,AAM,become,filler,notNoun,75,0,notNoun,1,1114
AAM06,AAM,brain,filler,noun,88,1,noun,1,834
AAM06,AAM,camera,filler,noun,81,1,noun,1,1406
AAM06,AAM,casserolestep12,critical,noun,72,1,noun,1,1221
AAM06,AAM,ciderstep9,critical,noun,89,1,noun,1,1545
AAM06,AAM,degree,filler,noun,27,1,noun,1,927
AAM06,AAM,depend,filler,notNoun,18,0,notNoun,1,1403
AAM06,AAM,develop,filler,notNoun,58,1,noun,0,1188
AAM06,AAM,document,filler,noun,21,1,noun,1,1658
AAM06,AAM,dragon,filler,noun,38,1,noun,1,869
AAM06,AAM,embody,filler,notNoun,36,0,notNoun,1,1902
AAM06,AAM,energy,filler,noun,93,1,noun,1,1568
AAM06,AAM,engine,filler,noun,62,1,noun,1,1214
AAM06,AAM,enroll,filler,notNoun,41,0,notNoun,1,1344
AAM06,AAM,eternal,filler,notNoun,32,0,notNoun,1,1242
AAM06,AAM,evolve,filler,notNoun,1,0,notNoun,1,815
AAM06,AAM,failure,filler,noun,11,1,noun,1,1101
AAM06,AAM,family,filler,noun,65,1,noun,1,899
AAM06,AAM,felony,filler,noun,90,1,noun,1,1316
AAM06,AAM,freeze,filler,notNoun,40,1,noun,0,1086
AAM06,AAM,fumble,filler,notNoun,57,0,notNoun,1,1048
AAM06,AAM,garden,filler,noun,51,1,noun,1,1727
AAM06,AAM,gasolinestep11,critical,noun,8,1,noun,1,1086
AAM06,AAM,global,filler,notNoun,48,0,notNoun,1,1021
AAM06,AAM,grapple,filler,notNoun,23,1,noun,0,1489
AAM06,AAM,guilty,filler,notNoun,19,0,notNoun,1,1684
AAM06,AAM,gullible,filler,notNoun,15,0,notNoun,1,1436
AAM06,AAM,hamburger,filler,noun,56,1,noun,1,1053
AAM06,AAM,harmful,filler,notNoun,98,0,notNoun,1,1315
AAM06,AAM,hidden,filler,notNoun,42,0,notNoun,1,1052
AAM06,AAM,honeymoon,filler,noun,14,1,noun,1,1075
AAM06,AAM,human,filler,noun,76,1,noun,1,1027
AAM06,AAM,ignore,filler,notNoun,44,0,notNoun,1,1149
AAM06,AAM,image,filler,noun,69,1,noun,1,755
AAM06,AAM,immoral,filler,notNoun,50,0,notNoun,1,1046
AAM06,AAM,immune,filler,notNoun,86,0,notNoun,1,1253
AAM06,AAM,ironic,filler,notNoun,43,0,notNoun,1,1173
AAM06,AAM,kidnap,filler,notNoun,17,0,notNoun,1,1429
AAM06,AAM,lawyer,filler,noun,60,1,noun,1,874
AAM06,AAM,lunatic,filler,notNoun,52,1,noun,0,933
AAM06,AAM,manually,filler,notNoun,25,0,notNoun,1,1421
AAM06,AAM,marina,filler,noun,96,1,noun,1,988
AAM06,AAM,military,filler,noun,87,1,noun,1,1363
AAM06,AAM,mineral,filler,noun,95,1,noun,1,1676
AAM06,AAM,momentary,filler,notNoun,78,0,notNoun,1,981
AAM06,AAM,occupy,filler,notNoun,47,0,notNoun,1,1611
AAM06,AAM,omelet,filler,noun,79,1,noun,1,965
AAM06,AAM,opaque,filler,notNoun,10,0,notNoun,1,1839
AAM06,AAM,orbital,filler,notNoun,61,1,noun,0,1394
AAM06,AAM,overcome,filler,notNoun,16,0,notNoun,1,1317
AAM06,AAM,parable,filler,noun,91,1,noun,1,1198
AAM06,AAM,parrot,filler,noun,30,1,noun,1,973
AAM06,AAM,pineapple,filler,noun,77,1,noun,1,967
AAM06,AAM,recovery,filler,noun,54,1,noun,1,1172
AAM06,AAM,regular,filler,notNoun,66,0,notNoun,1,1225
AAM06,AAM,relate,filler,notNoun,9,0,notNoun,1,1133
AAM06,AAM,remedial,filler,notNoun,26,0,notNoun,1,1308
AAM06,AAM,remind,filler,notNoun,97,1,noun,0,1022
AAM06,AAM,romantic,filler,notNoun,80,0,notNoun,1,1108
AAM06,AAM,royalty,filler,noun,45,1,noun,1,1782
AAM06,AAM,sabrestep10,critical,noun,83,1,noun,1,1063
AAM06,AAM,saltystep14,critical,notNoun,63,0,notNoun,1,1283
AAM06,AAM,sandalstep11,critical,noun,13,1,noun,1,1276
AAM06,AAM,seaweedstep12,critical,noun,12,1,noun,1,1372
AAM06,AAM,secludedstep10,critical,notNoun,7,0,notNoun,1,1222
AAM06,AAM,secondstep11,critical,noun,55,0,notNoun,0,1691
AAM06,AAM,severalstep9,critical,notNoun,35,0,notNoun,1,1381
AAM06,AAM,sidewalkstep8,critical,noun,22,1,noun,1,1384
AAM06,AAM,silverstep10,critical,noun,34,0,notNoun,0,1063
AAM06,AAM,similarstep10,critical,notNoun,46,0,notNoun,1,1314
AAM06,AAM,solidstep12,critical,notNoun,3,1,noun,0,1090
AAM06,AAM,submarinestep10,critical,noun,64,1,noun,1,972
AAM06,AAM,sufferstep8,critical,notNoun,74,0,notNoun,1,2376
AAM06,AAM,superpowerstep12,critical,noun,68,1,noun,1,1314
AAM06,AAM,surrenderstep8,critical,notNoun,2,0,notNoun,1,1466
AAM06,AAM,tobacco,filler,noun,92,1,noun,1,1293
AAM06,AAM,totally,filler,notNoun,84,0,notNoun,1,1575
AAM06,AAM,tutorial,filler,noun,53,1,noun,1,1055
AAM06,AAM,typical,filler,notNoun,67,0,notNoun,1,2110
AAM06,AAM,umbrella,filler,noun,6,1,noun,1,1083
AAM06,AAM,unique,filler,notNoun,49,0,notNoun,1,874
AAM06,AAM,vibrant,filler,notNoun,0,0,notNoun,1,1535
AAM06,AAM,warrantee,filler,noun,33,1,noun,1,1423
AAM06,AAM,weekly,filler,notNoun,73,1,noun,0,1782
AAM06,AAM,wrinkle,filler,noun,37,1,noun,1,1345
AAM06,AAM,yell,filler,notNoun,5,1,noun,0,1005
AAM06,AAM,yoghurt,filler,noun,4,1,noun,1,1213
AAM07,AAM,acerbicstep12,critical,notNoun,24,0,notNoun,1,1575
AAM07,AAM,alone,filler,notNoun,85,0,notNoun,1,1237
AAM07,AAM,america,filler,noun,94,0,notNoun,0,1919
AAM07,AAM,anemia,filler,noun,70,0,notNoun,0,1034
AAM07,AAM,animal,filler,noun,29,0,notNoun,0,1724
AAM07,AAM,annoying,filler,notNoun,31,0,notNoun,1,833
AAM07,AAM,appear,filler,notNoun,71,0,notNoun,1,959
AAM07,AAM,around,filler,notNoun,39,0,notNoun,1,1079
AAM07,AAM,avenue,filler,noun,99,1,noun,1,1673
AAM07,AAM,bakery,filler,noun,59,0,notNoun,0,1056
AAM07,AAM,ballerina,filler,noun,28,1,noun,1,1021
AAM07,AAM,basementstep11,critical,noun,20,1,noun,1,1126
AAM07,AAM,beauty,filler,noun,82,0,notNoun,0,997
AAM07,AAM,become,filler,notNoun,75,0,notNoun,1,1017
AAM07,AAM,brain,filler,noun,88,1,noun,1,1167
AAM07,AAM,camera,filler,noun,81,1,noun,1,1503
AAM07,AAM,casserolestep12,critical,noun,72,1,noun,1,1346
AAM07,AAM,ciderstep9,critical,noun,89,1,noun,1,1238
AAM07,AAM,degree,filler,noun,27,0,notNoun,0,1048
AAM07,AAM,depend,filler,notNoun,18,0,notNoun,1,1162
AAM07,AAM,develop,filler,notNoun,58,0,notNoun,1,1234
AAM07,AAM,document,filler,noun,21,1,noun,1,999
AAM07,AAM,dragon,filler,noun,38,1,noun,1,1027
AAM07,AAM,embody,filler,notNoun,36,0,notNoun,1,964
AAM07,AAM,energy,filler,noun,93,0,notNoun,0,1784
AAM07,AAM,engine,filler,noun,62,0,notNoun,0,879
AAM07,AAM,enroll,filler,notNoun,41,0,notNoun,1,870
AAM07,AAM,eternal,filler,notNoun,32,0,notNoun,1,1994
AAM07,AAM,evolve,filler,notNoun,1,0,notNoun,1,977
AAM07,AAM,failure,filler,noun,11,0,notNoun,0,714
AAM07,AAM,family,filler,noun,65,1,noun,1,927
AAM07,AAM,felony,filler,noun,90,0,notNoun,0,1126
AAM07,AAM,freeze,filler,notNoun,40,0,notNoun,1,1310
AAM07,AAM,fumble,filler,notNoun,57,0,notNoun,1,1067
AAM07,AAM,garden,filler,noun,51,0,notNoun,0,1556
AAM07,AAM,gasolinestep11,critical,noun,8,0,notNoun,0,684
AAM07,AAM,global,filler,notNoun,48,0,notNoun,1,1055
AAM07,AAM,grapple,filler,notNoun,23,0,notNoun,1,1141
AAM07,AAM,guilty,filler,notNoun,19,0,notNoun,1,839
AAM07,AAM,gullible,filler,notNoun,15,0,notNoun,1,1059
AAM07,AAM,hamburger,filler,noun,56,1,noun,1,1099
AAM07,AAM,harmful,filler,notNoun,98,0,notNoun,1,1040
AAM07,AAM,hidden,filler,notNoun,42,1,noun,0,799
AAM07,AAM,honeymoon,filler,noun,14,1,noun,1,1754
AAM07,AAM,human,filler,noun,76,0,notNoun,0,1547
AAM07,AAM,ignore,filler,notNoun,44,0,notNoun,1,1020
AAM07,AAM,image,filler,noun,69,0,notNoun,0,729
AAM07,AAM,immoral,filler,notNoun,50,0,notNoun,1,901
AAM07,AAM,immune,filler,notNoun,86,0,notNoun,1,1413
AAM07,AAM,ironic,filler,notNoun,43,0,notNoun,1,1123
AAM07,AAM,kidnap,filler,notNoun,17,0,notNoun,1,1447
AAM07,AAM,lawyer,filler,noun,60,1,noun,1,1904
AAM07,AAM,lunatic,filler,notNoun,52,0,notNoun,1,1144
AAM07,AAM,manually,filler,notNoun,25,0,notNoun,1,1036
AAM07,AAM,marina,filler,noun,96,1,noun,1,968
AAM07,AAM,military,filler,noun,87,1,noun,1,1099
AAM07,AAM,mineral,filler,noun,95,0,notNoun,0,1161
AAM07,AAM,momentary,filler,notNoun,78,0,notNoun,1,1118
AAM07,AAM,occupy,filler,notNoun,47,0,notNoun,1,1250
AAM07,AAM,omelet,filler,noun,79,1,noun,1,856
AAM07,AAM,opaque,filler,notNoun,10,0,notNoun,1,1150
AAM07,AAM,orbital,filler,notNoun,61,0,notNoun,1,1162
AAM07,AAM,overcome,filler,notNoun,16,0,notNoun,1,1144
AAM07,AAM,parable,filler,noun,91,0,notNoun,0,1420
AAM07,AAM,parrot,filler,noun,30,1,noun,1,1239
AAM07,AAM,pineapple,filler,noun,77,1,noun,1,764
AAM07,AAM,recovery,filler,noun,54,0,notNoun,0,935
AAM07,AAM,regular,filler,notNoun,66,0,notNoun,1,1335
AAM07,AAM,relate,filler,notNoun,9,0,notNoun,1,1354
AAM07,AAM,remedial,filler,notNoun,26,0,notNoun,1,1376
AAM07,AAM,remind,filler,notNoun,97,0,notNoun,1,1421
AAM07,AAM,romantic,filler,notNoun,80,0,notNoun,1,1259
AAM07,AAM,royalty,filler,noun,45,0,notNoun,0,1205
AAM07,AAM,sabrestep10,critical,noun,83,0,notNoun,0,1043
AAM07,AAM,saltystep14,critical,notNoun,63,0,notNoun,1,1319
AAM07,AAM,sandalstep11,critical,noun,13,1,noun,1,1086
AAM07,AAM,seaweedstep12,critical,noun,12,0,notNoun,0,1763
AAM07,AAM,secludedstep10,critical,notNoun,7,0,notNoun,1,1284
AAM07,AAM,secondstep11,critical,noun,55,0,notNoun,0,1119
AAM07,AAM,severalstep9,critical,notNoun,35,0,notNoun,1,1156
AAM07,AAM,sidewalkstep8,critical,noun,22,1,noun,1,1603
AAM07,AAM,silverstep10,critical,noun,34,0,notNoun,0,1509
AAM07,AAM,similarstep10,critical,notNoun,46,1,noun,0,2006
AAM07,AAM,solidstep12,critical,notNoun,3,1,noun,0,948
AAM07,AAM,submarinestep10,critical,noun,64,1,noun,1,1471
AAM07,AAM,sufferstep8,critical,notNoun,74,0,notNoun,1,1041
AAM07,AAM,superpowerstep12,critical,noun,68,0,notNoun,0,1598
AAM07,AAM,surrenderstep8,critical,notNoun,2,0,notNoun,1,1154
AAM07,AAM,tobacco,filler,noun,92,0,notNoun,0,1308
AAM07,AAM,totally,filler,notNoun,84,0,notNoun,1,880
AAM07,AAM,tutorial,filler,noun,53,0,notNoun,0,1061
AAM07,AAM,typical,filler,notNoun,67,0,notNoun,1,702
AAM07,AAM,umbrella,filler,noun,6,0,notNoun,0,1041
AAM07,AAM,unique,filler,notNoun,49,0,notNoun,1,1094
AAM07,AAM,vibrant,filler,notNoun,0,0,notNoun,1,1945
AAM07,AAM,warrantee,filler,noun,33,0,notNoun,0,1017
AAM07,AAM,weekly,filler,notNoun,73,0,notNoun,1,1127
AAM07,AAM,wrinkle,filler,noun,37,0,notNoun,0,915
AAM07,AAM,yell,filler,notNoun,5,0,notNoun,1,1045
AAM07,AAM,yoghurt,filler,noun,4,1,noun,1,900
AAM08,AAM,acerbicstep12,critical,notNoun,27,0,notNoun,1,2378
AAM08,AAM,alone,filler,notNoun,63,0,notNoun,1,1085
AAM08,AAM,america,filler,noun,23,0,notNoun,0,2877
AAM08,AAM,anemia,filler,noun,77,0,notNoun,0,2913
AAM08,AAM,animal,filler,noun,52,1,noun,1,1508
AAM08,AAM,annoying,filler,notNoun,5,0,notNoun,1,998
AAM08,AAM,appear,filler,notNoun,17,0,notNoun,1,1233
AAM08,AAM,around,filler,notNoun,4,0,notNoun,1,1187
AAM08,AAM,avenue,filler,noun,20,0,notNoun,0,2691
AAM08,AAM,bakery,filler,noun,68,1,noun,1,1407
AAM08,AAM,ballerina,filler,noun,26,1,noun,1,1233
AAM08,AAM,basementstep11,critical,noun,2,1,noun,1,1737
AAM08,AAM,beauty,filler,noun,11,0,notNoun,0,1149
AAM08,AAM,become,filler,notNoun,8,0,notNoun,1,971
AAM08,AAM,brain,filler,noun,99,1,noun,1,1587
AAM08,AAM,camera,filler,noun,35,1,noun,1,1602
AAM08,AAM,casserolestep12,critical,noun,14,1,noun,1,3699
AAM08,AAM,ciderstep9,critical,noun,37,0,notNoun,0,2643
AAM08,AAM,degree,filler,noun,96,1,noun,1,2755
AAM08,AAM,depend,filler,notNoun,88,0,notNoun,1,2076
AAM08,AAM,develop,filler,notNoun,95,0,notNoun,1,3447
AAM08,AAM,document,filler,noun,78,1,noun,1,3110
AAM08,AAM,dragon,filler,noun,76,1,noun,1,1113
AAM08,AAM,embody,filler,notNoun,92,0,notNoun,1,1425
AAM08,AAM,energy,filler,noun,61,0,notNoun,0,1260
AAM08,AAM,engine,filler,noun,75,1,noun,1,1596
AAM08,AAM,enroll,filler,notNoun,10,0,notNoun,1,1448
AAM08,AAM,eternal,filler,notNoun,69,0,notNoun,1,1736
AAM08,AAM,evolve,filler,notNoun,32,0,notNoun,1,1274
AAM08,AAM,failure,filler,noun,60,0,notNoun,0,2233
AAM08,AAM,family,filler,noun,91,0,notNoun,0,2438
AAM08,AAM,felony,filler,noun,93,0,notNoun,0,2595
AAM08,AAM,freeze,filler,notNoun,30,0,notNoun,1,3336
AAM08,AAM,fumble,filler,notNoun,34,0,notNoun,1,1312
AAM08,AAM,garden,filler,noun,56,1,noun,1,1579
AAM08,AAM,gasolinestep11,critical,noun,79,1,noun,1,1136
AAM08,AAM,global,filler,notNoun,43,0,notNoun,1,1986
AAM08,AAM,grapple,filler,notNoun,19,0,notNoun,1,1250
AAM08,AAM,guilty,filler,notNoun,28,0,notNoun,1,1217
AAM08,AAM,gullible,filler,notNoun,15,0,notNoun,1,2538
AAM08,AAM,hamburger,filler,noun,50,1,noun,1,1041
AAM08,AAM,harmful,filler,notNoun,98,0,notNoun,1,4658
AAM08,AAM,hidden,filler,notNoun,81,0,notNoun,1,1001
AAM08,AAM,honeymoon,filler,noun,33,0,notNoun,0,1409
AAM08,AAM,human,filler,noun,12,NA,NA,NA,0
AAM08,AAM,ignore,filler,notNoun,90,0,notNoun,1,1123
AAM08,AAM,image,filler,noun,38,1,noun,1,1457
AAM08,AAM,immoral,filler,notNoun,65,0,notNoun,1,1693
AAM08,AAM,immune,filler,notNoun,22,0,notNoun,1,1601
AAM08,AAM,ironic,filler,notNoun,45,0,notNoun,1,1823
AAM08,AAM,kidnap,filler,notNoun,16,0,notNoun,1,1486
AAM08,AAM,lawyer,filler,noun,18,1,noun,1,1894
AAM08,AAM,lunatic,filler,notNoun,57,1,noun,0,2584
AAM08,AAM,manually,filler,notNoun,36,0,notNoun,1,1488
AAM08,AAM,marina,filler,noun,6,0,notNoun,0,2030
AAM08,AAM,military,filler,noun,1,0,notNoun,0,1944
AAM08,AAM,mineral,filler,noun,13,1,noun,1,1589
AAM08,AAM,momentary,filler,notNoun,84,0,notNoun,1,1262
AAM08,AAM,occupy,filler,notNoun,67,0,notNoun,1,2658
AAM08,AAM,omelet,filler,noun,44,1,noun,1,1185
AAM08,AAM,opaque,filler,notNoun,47,0,notNoun,1,1457
AAM08,AAM,orbital,filler,notNoun,39,0,notNoun,1,2811
AAM08,AAM,overcome,filler,notNoun,3,0,notNoun,1,1476
AAM08,AAM,parable,filler,noun,29,0,notNoun,0,1311
AAM08,AAM,parrot,filler,noun,41,1,noun,1,1146
AAM08,AAM,pineapple,filler,noun,85,1,noun,1,1222
AAM08,AAM,recovery,filler,noun,21,0,notNoun,0,1356
AAM08,AAM,regular,filler,notNoun,64,0,notNoun,1,1435
AAM08,AAM,relate,filler,notNoun,31,0,notNoun,1,1363
AAM08,AAM,remedial,filler,notNoun,73,0,notNoun,1,1970
AAM08,AAM,remind,filler,notNoun,53,0,notNoun,1,1304
AAM08,AAM,romantic,filler,notNoun,40,0,notNoun,1,1734
AAM08,AAM,royalty,filler,noun,9,0,notNoun,0,2424
AAM08,AAM,sabrestep10,critical,noun,55,0,notNoun,0,2181
AAM08,AAM,saltystep14,critical,notNoun,86,0,notNoun,1,1574
AAM08,AAM,sandalstep11,critical,noun,46,1,noun,1,1253
AAM08,AAM,seaweedstep12,critical,noun,25,1,noun,1,1465
AAM08,AAM,secludedstep10,critical,notNoun,72,0,notNoun,1,1184
AAM08,AAM,secondstep11,critical,noun,48,0,notNoun,0,1732
AAM08,AAM,severalstep9,critical,notNoun,71,0,notNoun,1,1422
AAM08,AAM,sidewalkstep8,critical,noun,24,1,noun,1,2949
AAM08,AAM,silverstep10,critical,noun,70,0,notNoun,0,1702
AAM08,AAM,similarstep10,critical,notNoun,51,0,notNoun,1,2104
AAM08,AAM,solidstep12,critical,notNoun,0,0,notNoun,1,2027
AAM08,AAM,submarinestep10,critical,noun,54,1,noun,1,1723
AAM08,AAM,sufferstep8,critical,notNoun,49,0,notNoun,1,1201
AAM08,AAM,superpowerstep12,critical,noun,87,0,notNoun,0,1618
AAM08,AAM,surrenderstep8,critical,notNoun,62,0,notNoun,1,1469
AAM08,AAM,tobacco,filler,noun,82,1,noun,1,1217
AAM08,AAM,totally,filler,notNoun,74,0,notNoun,1,1297
AAM08,AAM,tutorial,filler,noun,66,0,notNoun,0,1485
AAM08,AAM,typical,filler,notNoun,58,0,notNoun,1,1607
AAM08,AAM,umbrella,filler,noun,59,1,noun,1,1139
AAM08,AAM,unique,filler,notNoun,80,0,notNoun,1,1409
AAM08,AAM,vibrant,filler,notNoun,83,0,notNoun,1,1735
AAM08,AAM,warrantee,filler,noun,89,1,noun,1,1946
AAM08,AAM,weekly,filler,notNoun,94,0,notNoun,1,1865
AAM08,AAM,wrinkle,filler,noun,97,0,notNoun,0,1964
AAM08,AAM,yell,filler,notNoun,7,0,notNoun,1,2369
AAM08,AAM,yoghurt,filler,noun,42,1,noun,1,1083
AAM09,AAM,acerbicstep12,critical,notNoun,27,1,noun,0,2246
AAM09,AAM,alone,filler,notNoun,63,0,notNoun,1,1419
AAM09,AAM,america,filler,noun,23,1,noun,1,3059
AAM09,AAM,anemia,filler,noun,77,1,noun,1,2652
AAM09,AAM,animal,filler,noun,52,1,noun,1,1824
AAM09,AAM,annoying,filler,notNoun,5,0,notNoun,1,2383
AAM09,AAM,appear,filler,notNoun,17,0,notNoun,1,1429
AAM09,AAM,around,filler,notNoun,4,0,notNoun,1,1727
AAM09,AAM,avenue,filler,noun,20,1,noun,1,3232
AAM09,AAM,bakery,filler,noun,68,1,noun,1,1056
AAM09,AAM,ballerina,filler,noun,26,1,noun,1,1029
AAM09,AAM,basementstep11,critical,noun,2,1,noun,1,1257
AAM09,AAM,beauty,filler,noun,11,1,noun,1,1365
AAM09,AAM,become,filler,notNoun,8,0,notNoun,1,1242
AAM09,AAM,brain,filler,noun,99,1,noun,1,2484
AAM09,AAM,camera,filler,noun,35,1,noun,1,1417
AAM09,AAM,casserolestep12,critical,noun,14,0,notNoun,0,4590
AAM09,AAM,ciderstep9,critical,noun,37,1,noun,1,2079
AAM09,AAM,degree,filler,noun,96,0,notNoun,0,2098
AAM09,AAM,depend,filler,notNoun,88,0,notNoun,1,1380
AAM09,AAM,develop,filler,notNoun,95,1,noun,0,3007
AAM09,AAM,document,filler,noun,78,0,notNoun,0,4013
AAM09,AAM,dragon,filler,noun,76,1,noun,1,1274
AAM09,AAM,embody,filler,notNoun,92,0,notNoun,1,1850
AAM09,AAM,energy,filler,noun,61,0,notNoun,0,1040
AAM09,AAM,engine,filler,noun,75,1,noun,1,1174
AAM09,AAM,enroll,filler,notNoun,10,0,notNoun,1,1082
AAM09,AAM,eternal,filler,notNoun,69,0,notNoun,1,1384
AAM09,AAM,evolve,filler,notNoun,32,0,notNoun,1,1455
AAM09,AAM,failure,filler,noun,60,1,noun,1,4719
AAM09,AAM,family,filler,noun,91,1,noun,1,1764
AAM09,AAM,felony,filler,noun,93,0,notNoun,0,2635
AAM09,AAM,freeze,filler,notNoun,30,1,noun,0,3594
AAM09,AAM,fumble,filler,notNoun,34,0,notNoun,1,1163
AAM09,AAM,garden,filler,noun,56,1,noun,1,1315
AAM09,AAM,gasolinestep11,critical,noun,79,1,noun,1,1850
AAM09,AAM,global,filler,notNoun,43,0,notNoun,1,1532
AAM09,AAM,grapple,filler,notNoun,19,0,notNoun,1,1541
AAM09,AAM,guilty,filler,notNoun,28,0,notNoun,1,1030
AAM09,AAM,gullible,filler,notNoun,15,0,notNoun,1,4706
AAM09,AAM,hamburger,filler,noun,50,1,noun,1,1037
AAM09,AAM,harmful,filler,notNoun,98,NA,NA,NA,0
AAM09,AAM,hidden,filler,notNoun,81,0,notNoun,1,1407
AAM09,AAM,honeymoon,filler,noun,33,1,noun,1,1869
AAM09,AAM,human,filler,noun,12,1,noun,1,1136
AAM09,AAM,ignore,filler,notNoun,90,0,notNoun,1,989
AAM09,AAM,image,filler,noun,38,1,noun,1,1349
AAM09,AAM,immoral,filler,notNoun,65,1,noun,0,2227
AAM09,AAM,immune,filler,notNoun,22,0,notNoun,1,1328
AAM09,AAM,ironic,filler,notNoun,45,0,notNoun,1,910
AAM09,AAM,kidnap,filler,notNoun,16,1,noun,0,1787
AAM09,AAM,lawyer,filler,noun,18,1,noun,1,1160
AAM09,AAM,lunatic,filler,notNoun,57,0,notNoun,1,1371
AAM09,AAM,manually,filler,notNoun,36,0,notNoun,1,1277
AAM09,AAM,marina,filler,noun,6,1,noun,1,2310
AAM09,AAM,military,filler,noun,1,1,noun,1,1367
AAM09,AAM,mineral,filler,noun,13,1,noun,1,1856
AAM09,AAM,momentary,filler,notNoun,84,0,notNoun,1,1449
AAM09,AAM,occupy,filler,notNoun,67,1,noun,0,3811
AAM09,AAM,omelet,filler,noun,44,1,noun,1,966
AAM09,AAM,opaque,filler,notNoun,47,0,notNoun,1,1427
AAM09,AAM,orbital,filler,notNoun,39,1,noun,0,2764
AAM09,AAM,overcome,filler,notNoun,3,0,notNoun,1,1151
AAM09,AAM,parable,filler,noun,29,0,notNoun,0,1270
AAM09,AAM,parrot,filler,noun,41,1,noun,1,940
AAM09,AAM,pineapple,filler,noun,85,1,noun,1,1326
AAM09,AAM,recovery,filler,noun,21,0,notNoun,0,1139
AAM09,AAM,regular,filler,notNoun,64,0,notNoun,1,1216
AAM09,AAM,relate,filler,notNoun,31,0,notNoun,1,1787
AAM09,AAM,remedial,filler,notNoun,73,0,notNoun,1,2377
AAM09,AAM,remind,filler,notNoun,53,0,notNoun,1,1530
AAM09,AAM,romantic,filler,notNoun,40,0,notNoun,1,3044
AAM09,AAM,royalty,filler,noun,9,0,notNoun,0,2767
AAM09,AAM,sabrestep10,critical,noun,55,0,notNoun,0,1669
AAM09,AAM,saltystep14,critical,notNoun,86,0,notNoun,1,1797
AAM09,AAM,sandalstep11,critical,noun,46,1,noun,1,1383
AAM09,AAM,seaweedstep12,critical,noun,25,1,noun,1,1203
AAM09,AAM,secludedstep10,critical,notNoun,72,0,notNoun,1,1438
AAM09,AAM,secondstep11,critical,noun,48,0,notNoun,0,1920
AAM09,AAM,severalstep9,critical,notNoun,71,0,notNoun,1,1292
AAM09,AAM,sidewalkstep8,critical,noun,24,0,notNoun,0,3532
AAM09,AAM,silverstep10,critical,noun,70,1,noun,1,1225
AAM09,AAM,similarstep10,critical,notNoun,51,0,notNoun,1,2173
AAM09,AAM,solidstep12,critical,notNoun,0,1,noun,0,2214
AAM09,AAM,submarinestep10,critical,noun,54,1,noun,1,1286
AAM09,AAM,sufferstep8,critical,notNoun,49,0,notNoun,1,1353
AAM09,AAM,superpowerstep12,critical,noun,87,0,notNoun,0,3023
AAM09,AAM,surrenderstep8,critical,notNoun,62,0,notNoun,1,1600
AAM09,AAM,tobacco,filler,noun,82,1,noun,1,1112
AAM09,AAM,totally,filler,notNoun,74,0,notNoun,1,2061
AAM09,AAM,tutorial,filler,noun,66,0,notNoun,0,1733
AAM09,AAM,typical,filler,notNoun,58,0,notNoun,1,1398
AAM09,AAM,umbrella,filler,noun,59,1,noun,1,956
AAM09,AAM,unique,filler,notNoun,80,0,notNoun,1,1370
AAM09,AAM,vibrant,filler,notNoun,83,0,notNoun,1,1946
AAM09,AAM,warrantee,filler,noun,89,0,notNoun,0,960
AAM09,AAM,weekly,filler,notNoun,94,0,notNoun,1,1766
AAM09,AAM,wrinkle,filler,noun,97,0,notNoun,0,2184
AAM09,AAM,yell,filler,notNoun,7,0,notNoun,1,2043
AAM09,AAM,yoghurt,filler,noun,42,1,noun,1,1566
AAM10,AAM,acerbicstep12,critical,notNoun,25,0,notNoun,1,2015
AAM10,AAM,alone,filler,notNoun,3,0,notNoun,1,919
AAM10,AAM,america,filler,noun,18,1,noun,1,1423
AAM10,AAM,anemia,filler,noun,29,1,noun,1,1686
AAM10,AAM,animal,filler,noun,54,1,noun,1,694
AAM10,AAM,annoying,filler,notNoun,27,0,notNoun,1,1087
AAM10,AAM,appear,filler,notNoun,6,0,notNoun,1,1013
AAM10,AAM,around,filler,notNoun,37,0,notNoun,1,1372
AAM10,AAM,avenue,filler,noun,5,1,noun,1,894
AAM10,AAM,bakery,filler,noun,61,1,noun,1,1129
AAM10,AAM,ballerina,filler,noun,63,1,noun,1,992
AAM10,AAM,basementstep11,critical,noun,10,1,noun,1,1076
AAM10,AAM,beauty,filler,noun,48,1,noun,1,1326
AAM10,AAM,become,filler,notNoun,72,0,notNoun,1,1300
AAM10,AAM,brain,filler,noun,88,1,noun,1,1047
AAM10,AAM,camera,filler,noun,46,1,noun,1,887
AAM10,AAM,casserolestep12,critical,noun,76,1,noun,1,1555
AAM10,AAM,ciderstep9,critical,noun,62,1,noun,1,1446
AAM10,AAM,degree,filler,noun,42,0,notNoun,0,843
AAM10,AAM,depend,filler,notNoun,49,0,notNoun,1,1327
AAM10,AAM,develop,filler,notNoun,35,0,notNoun,1,1728
AAM10,AAM,document,filler,noun,36,1,noun,1,2833
AAM10,AAM,dragon,filler,noun,24,1,noun,1,1370
AAM10,AAM,embody,filler,notNoun,89,0,notNoun,1,2245
AAM10,AAM,energy,filler,noun,84,0,notNoun,0,1053
AAM10,AAM,engine,filler,noun,52,1,noun,1,1275
AAM10,AAM,enroll,filler,notNoun,57,0,notNoun,1,1930
AAM10,AAM,eternal,filler,notNoun,74,0,notNoun,1,1964
AAM10,AAM,evolve,filler,notNoun,16,0,notNoun,1,1215
AAM10,AAM,failure,filler,noun,19,0,notNoun,0,1485
AAM10,AAM,family,filler,noun,91,1,noun,1,1028
AAM10,AAM,felony,filler,noun,86,0,notNoun,0,2086
AAM10,AAM,freeze,filler,notNoun,12,0,notNoun,1,1743
AAM10,AAM,fumble,filler,notNoun,53,0,notNoun,1,1442
AAM10,AAM,garden,filler,noun,96,1,noun,1,983
AAM10,AAM,gasolinestep11,critical,noun,99,1,noun,1,1031
AAM10,AAM,global,filler,notNoun,66,0,notNoun,1,996
AAM10,AAM,grapple,filler,notNoun,34,0,notNoun,1,1244
AAM10,AAM,guilty,filler,notNoun,78,0,notNoun,1,1307
AAM10,AAM,gullible,filler,notNoun,90,0,notNoun,1,959
AAM10,AAM,hamburger,filler,noun,65,1,noun,1,1002
AAM10,AAM,harmful,filler,notNoun,8,0,notNoun,1,1212
AAM10,AAM,hidden,filler,notNoun,0,0,notNoun,1,988
AAM10,AAM,honeymoon,filler,noun,51,0,notNoun,0,1291
AAM10,AAM,human,filler,noun,60,1,noun,1,857
AAM10,AAM,ignore,filler,notNoun,47,0,notNoun,1,1628
AAM10,AAM,image,filler,noun,45,1,noun,1,976
AAM10,AAM,immoral,filler,notNoun,95,0,notNoun,1,2563
AAM10,AAM,immune,filler,notNoun,70,0,notNoun,1,1594
AAM10,AAM,ironic,filler,notNoun,85,0,notNoun,1,971
AAM10,AAM,kidnap,filler,notNoun,83,0,notNoun,1,1651
AAM10,AAM,lawyer,filler,noun,1,1,noun,1,976
AAM10,AAM,lunatic,filler,notNoun,87,1,noun,0,1105
AAM10,AAM,manually,filler,notNoun,21,0,notNoun,1,1360
AAM10,AAM,marina,filler,noun,98,1,noun,1,1607
AAM10,AAM,military,filler,noun,38,1,noun,1,933
AAM10,AAM,mineral,filler,noun,64,1,noun,1,1170
AAM10,AAM,momentary,filler,notNoun,44,0,notNoun,1,1087
AAM10,AAM,occupy,filler,notNoun,79,0,notNoun,1,2321
AAM10,AAM,omelet,filler,noun,30,1,noun,1,1049
AAM10,AAM,opaque,filler,notNoun,11,1,noun,0,1083
AAM10,AAM,orbital,filler,notNoun,58,0,notNoun,1,987
AAM10,AAM,overcome,filler,notNoun,97,0,notNoun,1,1198
AAM10,AAM,parable,filler,noun,68,1,noun,1,1261
AAM10,AAM,parrot,filler,noun,39,1,noun,1,854
AAM10,AAM,pineapple,filler,noun,32,1,noun,1,927
AAM10,AAM,recovery,filler,noun,31,0,notNoun,0,1480
AAM10,AAM,regular,filler,notNoun,23,0,notNoun,1,1030
AAM10,AAM,relate,filler,notNoun,93,0,notNoun,1,1122
AAM10,AAM,remedial,filler,notNoun,28,0,notNoun,1,961
AAM10,AAM,remind,filler,notNoun,7,0,notNoun,1,1882
AAM10,AAM,romantic,filler,notNoun,43,0,notNoun,1,1588
AAM10,AAM,royalty,filler,noun,94,1,noun,1,1112
AAM10,AAM,sabrestep10,critical,noun,17,0,notNoun,0,1677
AAM10,AAM,saltystep14,critical,notNoun,26,0,notNoun,1,935
AAM10,AAM,sandalstep11,critical,noun,13,1,noun,1,1285
AAM10,AAM,seaweedstep12,critical,noun,82,1,noun,1,1127
AAM10,AAM,secludedstep10,critical,notNoun,9,0,notNoun,1,1495
AAM10,AAM,secondstep11,critical,noun,75,0,notNoun,0,1829
AAM10,AAM,severalstep9,critical,notNoun,71,0,notNoun,1,1277
AAM10,AAM,sidewalkstep8,critical,noun,73,1,noun,1,1173
AAM10,AAM,silverstep10,critical,noun,55,0,notNoun,0,2234
AAM10,AAM,similarstep10,critical,notNoun,22,0,notNoun,1,1876
AAM10,AAM,solidstep12,critical,notNoun,40,0,notNoun,1,2341
AAM10,AAM,submarinestep10,critical,noun,20,1,noun,1,1047
AAM10,AAM,sufferstep8,critical,notNoun,14,0,notNoun,1,1394
AAM10,AAM,superpowerstep12,critical,noun,81,1,noun,1,1360
AAM10,AAM,surrenderstep8,critical,notNoun,92,0,notNoun,1,1484
AAM10,AAM,tobacco,filler,noun,2,1,noun,1,924
AAM10,AAM,totally,filler,notNoun,4,0,notNoun,1,1070
AAM10,AAM,tutorial,filler,noun,15,1,noun,1,1540
AAM10,AAM,typical,filler,notNoun,77,0,notNoun,1,1906
AAM10,AAM,umbrella,filler,noun,67,1,noun,1,1018
AAM10,AAM,unique,filler,notNoun,80,0,notNoun,1,1172
AAM10,AAM,vibrant,filler,notNoun,59,1,noun,0,1836
AAM10,AAM,warrantee,filler,noun,50,1,noun,1,4012
AAM10,AAM,weekly,filler,notNoun,41,0,notNoun,1,1292
AAM10,AAM,wrinkle,filler,noun,56,0,notNoun,0,1431
AAM10,AAM,yell,filler,notNoun,33,0,notNoun,1,1509
AAM10,AAM,yoghurt,filler,noun,69,1,noun,1,1537
AAM11,AAM,acerbicstep12,critical,notNoun,25,0,notNoun,1,1310
AAM11,AAM,alone,filler,notNoun,3,0,notNoun,1,1947
AAM11,AAM,america,filler,noun,18,1,noun,1,897
AAM11,AAM,anemia,filler,noun,29,0,notNoun,0,2172
AAM11,AAM,animal,filler,noun,54,1,noun,1,743
AAM11,AAM,annoying,filler,notNoun,27,0,notNoun,1,1283
AAM11,AAM,appear,filler,notNoun,6,0,notNoun,1,1671
AAM11,AAM,around,filler,notNoun,37,0,notNoun,1,1429
AAM11,AAM,avenue,filler,noun,5,1,noun,1,1417
AAM11,AAM,bakery,filler,noun,61,1,noun,1,1246
AAM11,AAM,ballerina,filler,noun,63,1,noun,1,987
AAM11,AAM,basementstep11,critical,noun,10,1,noun,1,937
AAM11,AAM,beauty,filler,noun,48,0,notNoun,0,1329
AAM11,AAM,become,filler,notNoun,72,0,notNoun,1,1282
AAM11,AAM,brain,filler,noun,88,1,noun,1,805
AAM11,AAM,camera,filler,noun,46,1,noun,1,965
AAM11,AAM,casserolestep12,critical,noun,76,1,noun,1,972
AAM11,AAM,ciderstep9,critical,noun,62,1,noun,1,1444
AAM11,AAM,degree,filler,noun,42,1,noun,1,1942
AAM11,AAM,depend,filler,notNoun,49,0,notNoun,1,1028
AAM11,AAM,develop,filler,notNoun,35,0,notNoun,1,1989
AAM11,AAM,document,filler,noun,36,1,noun,1,2744
AAM11,AAM,dragon,filler,noun,24,1,noun,1,1282
AAM11,AAM,embody,filler,notNoun,89,0,notNoun,1,1572
AAM11,AAM,energy,filler,noun,84,0,notNoun,0,873
AAM11,AAM,engine,filler,noun,52,1,noun,1,1297
AAM11,AAM,enroll,filler,notNoun,57,0,notNoun,1,1577
AAM11,AAM,eternal,filler,notNoun,74,0,notNoun,1,1101
AAM11,AAM,evolve,filler,notNoun,16,0,notNoun,1,1412
AAM11,AAM,failure,filler,noun,19,0,notNoun,0,1154
AAM11,AAM,family,filler,noun,91,1,noun,1,1445
AAM11,AAM,felony,filler,noun,86,1,noun,1,1822
AAM11,AAM,freeze,filler,notNoun,12,0,notNoun,1,1506
AAM11,AAM,fumble,filler,notNoun,53,1,noun,0,1110
AAM11,AAM,garden,filler,noun,96,1,noun,1,896
AAM11,AAM,gasolinestep11,critical,noun,99,1,noun,1,1026
AAM11,AAM,global,filler,notNoun,66,1,noun,0,1152
AAM11,AAM,grapple,filler,notNoun,34,1,noun,0,1675
AAM11,AAM,guilty,filler,notNoun,78,1,noun,0,1792
AAM11,AAM,gullible,filler,notNoun,90,0,notNoun,1,1526
AAM11,AAM,hamburger,filler,noun,65,1,noun,1,1132
AAM11,AAM,harmful,filler,notNoun,8,0,notNoun,1,1094
AAM11,AAM,hidden,filler,notNoun,0,0,notNoun,1,977
AAM11,AAM,honeymoon,filler,noun,51,1,noun,1,1100
AAM11,AAM,human,filler,noun,60,1,noun,1,910
AAM11,AAM,ignore,filler,notNoun,47,0,notNoun,1,1189
AAM11,AAM,image,filler,noun,45,1,noun,1,1171
AAM11,AAM,immoral,filler,notNoun,95,0,notNoun,1,1013
AAM11,AAM,immune,filler,notNoun,70,0,notNoun,1,1189
AAM11,AAM,ironic,filler,notNoun,85,0,notNoun,1,1606
AAM11,AAM,kidnap,filler,notNoun,83,0,notNoun,1,2841
AAM11,AAM,lawyer,filler,noun,1,1,noun,1,806
AAM11,AAM,lunatic,filler,notNoun,87,1,noun,0,1879
AAM11,AAM,manually,filler,notNoun,21,1,noun,0,1939
AAM11,AAM,marina,filler,noun,98,1,noun,1,1472
AAM11,AAM,military,filler,noun,38,1,noun,1,1096
AAM11,AAM,mineral,filler,noun,64,1,noun,1,1697
AAM11,AAM,momentary,filler,notNoun,44,0,notNoun,1,1217
AAM11,AAM,occupy,filler,notNoun,79,0,notNoun,1,1247
AAM11,AAM,omelet,filler,noun,30,1,noun,1,922
AAM11,AAM,opaque,filler,notNoun,11,0,notNoun,1,1020
AAM11,AAM,orbital,filler,notNoun,58,0,notNoun,1,1747
AAM11,AAM,overcome,filler,notNoun,97,0,notNoun,1,1244
AAM11,AAM,parable,filler,noun,68,0,notNoun,0,1020
AAM11,AAM,parrot,filler,noun,39,1,noun,1,843
AAM11,AAM,pineapple,filler,noun,32,1,noun,1,1309
AAM11,AAM,recovery,filler,noun,31,0,notNoun,0,1276
AAM11,AAM,regular,filler,notNoun,23,0,notNoun,1,1062
AAM11,AAM,relate,filler,notNoun,93,0,notNoun,1,1153
AAM11,AAM,remedial,filler,notNoun,28,0,notNoun,1,1123
AAM11,AAM,remind,filler,notNoun,7,0,notNoun,1,1303
AAM11,AAM,romantic,filler,notNoun,43,0,notNoun,1,1280
AAM11,AAM,royalty,filler,noun,94,0,notNoun,0,1654
AAM11,AAM,sabrestep10,critical,noun,17,1,noun,1,1589
AAM11,AAM,saltystep14,critical,notNoun,26,0,notNoun,1,1450
AAM11,AAM,sandalstep11,critical,noun,13,1,noun,1,1138
AAM11,AAM,seaweedstep12,critical,noun,82,1,noun,1,2704
AAM11,AAM,secludedstep10,critical,notNoun,9,0,notNoun,1,1107
AAM11,AAM,secondstep11,critical,noun,75,1,noun,1,1862
AAM11,AAM,severalstep9,critical,notNoun,71,0,notNoun,1,1606
AAM11,AAM,sidewalkstep8,critical,noun,73,1,noun,1,1759
AAM11,AAM,silverstep10,critical,noun,55,0,notNoun,0,1203
AAM11,AAM,similarstep10,critical,notNoun,22,0,notNoun,1,1468
AAM11,AAM,solidstep12,critical,notNoun,40,0,notNoun,1,1903
AAM11,AAM,submarinestep10,critical,noun,20,1,noun,1,1303
AAM11,AAM,sufferstep8,critical,notNoun,14,0,notNoun,1,1828
AAM11,AAM,superpowerstep12,critical,noun,81,0,notNoun,0,2682
AAM11,AAM,surrenderstep8,critical,notNoun,92,0,notNoun,1,2247
AAM11,AAM,tobacco,filler,noun,2,1,noun,1,898
AAM11,AAM,totally,filler,notNoun,4,0,notNoun,1,1644
AAM11,AAM,tutorial,filler,noun,15,1,noun,1,1333
AAM11,AAM,typical,filler,notNoun,77,0,notNoun,1,2608
AAM11,AAM,umbrella,filler,noun,67,1,noun,1,986
AAM11,AAM,unique,filler,notNoun,80,0,notNoun,1,951
AAM11,AAM,vibrant,filler,notNoun,59,0,notNoun,1,1191
AAM11,AAM,warrantee,filler,noun,50,1,noun,1,1185
AAM11,AAM,weekly,filler,notNoun,41,0,notNoun,1,4644
AAM11,AAM,wrinkle,filler,noun,56,1,noun,1,1190
AAM11,AAM,yell,filler,notNoun,33,1,noun,0,975
AAM11,AAM,yoghurt,filler,noun,69,1,noun,1,1778
AAM12,AAM,acerbicstep12,critical,notNoun,25,0,notNoun,1,1481
AAM12,AAM,alone,filler,notNoun,3,0,notNoun,1,1015
AAM12,AAM,america,filler,noun,18,1,noun,1,1170
AAM12,AAM,anemia,filler,noun,29,1,noun,1,1738
AAM12,AAM,animal,filler,noun,54,1,noun,1,854
AAM12,AAM,annoying,filler,notNoun,27,0,notNoun,1,944
AAM12,AAM,appear,filler,notNoun,6,0,notNoun,1,1264
AAM12,AAM,around,filler,notNoun,37,0,notNoun,1,1616
AAM12,AAM,avenue,filler,noun,5,1,noun,1,1077
AAM12,AAM,bakery,filler,noun,61,1,noun,1,995
AAM12,AAM,ballerina,filler,noun,63,1,noun,1,1238
AAM12,AAM,basementstep11,critical,noun,10,1,noun,1,1057
AAM12,AAM,beauty,filler,noun,48,1,noun,1,1024
AAM12,AAM,become,filler,notNoun,72,0,notNoun,1,1440
AAM12,AAM,brain,filler,noun,88,1,noun,1,1040
AAM12,AAM,camera,filler,noun,46,0,notNoun,0,1125
AAM12,AAM,casserolestep12,critical,noun,76,0,notNoun,0,1303
AAM12,AAM,ciderstep9,critical,noun,62,1,noun,1,1199
AAM12,AAM,degree,filler,noun,42,1,noun,1,993
AAM12,AAM,depend,filler,notNoun,49,0,notNoun,1,1457
AAM12,AAM,develop,filler,notNoun,35,0,notNoun,1,1203
AAM12,AAM,document,filler,noun,36,1,noun,1,2030
AAM12,AAM,dragon,filler,noun,24,1,noun,1,984
AAM12,AAM,embody,filler,notNoun,89,0,notNoun,1,2144
AAM12,AAM,energy,filler,noun,84,0,notNoun,0,1069
AAM12,AAM,engine,filler,noun,52,1,noun,1,1275
AAM12,AAM,enroll,filler,notNoun,57,0,notNoun,1,2400
AAM12,AAM,eternal,filler,notNoun,74,0,notNoun,1,1691
AAM12,AAM,evolve,filler,notNoun,16,0,notNoun,1,1286
AAM12,AAM,failure,filler,noun,19,0,notNoun,0,1084
AAM12,AAM,family,filler,noun,91,1,noun,1,1002
AAM12,AAM,felony,filler,noun,86,0,notNoun,0,1225
AAM12,AAM,freeze,filler,notNoun,12,0,notNoun,1,1028
AAM12,AAM,fumble,filler,notNoun,53,1,noun,0,1866
AAM12,AAM,garden,filler,noun,96,1,noun,1,982
AAM12,AAM,gasolinestep11,critical,noun,99,1,noun,1,980
AAM12,AAM,global,filler,notNoun,66,1,noun,0,1240
AAM12,AAM,grapple,filler,notNoun,34,0,notNoun,1,1034
AAM12,AAM,guilty,filler,notNoun,78,0,notNoun,1,2263
AAM12,AAM,gullible,filler,notNoun,90,0,notNoun,1,1298
AAM12,AAM,hamburger,filler,noun,65,1,noun,1,1197
AAM12,AAM,harmful,filler,notNoun,8,0,notNoun,1,1498
AAM12,AAM,hidden,filler,notNoun,0,0,notNoun,1,1368
AAM12,AAM,honeymoon,filler,noun,51,1,noun,1,1589
AAM12,AAM,human,filler,noun,60,1,noun,1,952
AAM12,AAM,ignore,filler,notNoun,47,0,notNoun,1,1629
AAM12,AAM,image,filler,noun,45,1,noun,1,952
AAM12,AAM,immoral,filler,notNoun,95,0,notNoun,1,1135
AAM12,AAM,immune,filler,notNoun,70,1,noun,0,1358
AAM12,AAM,ironic,filler,notNoun,85,0,notNoun,1,1945
AAM12,AAM,kidnap,filler,notNoun,83,0,notNoun,1,1487
AAM12,AAM,lawyer,filler,noun,1,0,notNoun,0,880
AAM12,AAM,lunatic,filler,notNoun,87,1,noun,0,1719
AAM12,AAM,manually,filler,notNoun,21,0,notNoun,1,1353
AAM12,AAM,marina,filler,noun,98,1,noun,1,1424
AAM12,AAM,military,filler,noun,38,1,noun,1,1226
AAM12,AAM,mineral,filler,noun,64,1,noun,1,1036
AAM12,AAM,momentary,filler,notNoun,44,0,notNoun,1,1550
AAM12,AAM,occupy,filler,notNoun,79,0,notNoun,1,1118
AAM12,AAM,omelet,filler,noun,30,1,noun,1,1044
AAM12,AAM,opaque,filler,notNoun,11,0,notNoun,1,1157
AAM12,AAM,orbital,filler,notNoun,58,1,noun,0,1238
AAM12,AAM,overcome,filler,notNoun,97,0,notNoun,1,2220
AAM12,AAM,parable,filler,noun,68,0,notNoun,0,2084
AAM12,AAM,parrot,filler,noun,39,1,noun,1,1072
AAM12,AAM,pineapple,filler,noun,32,1,noun,1,883
AAM12,AAM,recovery,filler,noun,31,0,notNoun,0,1251
AAM12,AAM,regular,filler,notNoun,23,0,notNoun,1,1353
AAM12,AAM,relate,filler,notNoun,93,0,notNoun,1,1815
AAM12,AAM,remedial,filler,notNoun,28,0,notNoun,1,1821
AAM12,AAM,remind,filler,notNoun,7,0,notNoun,1,1212
AAM12,AAM,romantic,filler,notNoun,43,0,notNoun,1,1361
AAM12,AAM,royalty,filler,noun,94,0,notNoun,0,2339
AAM12,AAM,sabrestep10,critical,noun,17,0,notNoun,0,1196
AAM12,AAM,saltystep14,critical,notNoun,26,1,noun,0,1545
AAM12,AAM,sandalstep11,critical,noun,13,1,noun,1,1181
AAM12,AAM,seaweedstep12,critical,noun,82,1,noun,1,1295
AAM12,AAM,secludedstep10,critical,notNoun,9,0,notNoun,1,1277
AAM12,AAM,secondstep11,critical,noun,75,0,notNoun,0,2100
AAM12,AAM,severalstep9,critical,notNoun,71,0,notNoun,1,2304
AAM12,AAM,sidewalkstep8,critical,noun,73,1,noun,1,1023
AAM12,AAM,silverstep10,critical,noun,55,1,noun,1,1183
AAM12,AAM,similarstep10,critical,notNoun,22,0,notNoun,1,1395
AAM12,AAM,solidstep12,critical,notNoun,40,0,notNoun,1,2944
AAM12,AAM,submarinestep10,critical,noun,20,1,noun,1,1276
AAM12,AAM,sufferstep8,critical,notNoun,14,1,noun,0,1706
AAM12,AAM,superpowerstep12,critical,noun,81,0,notNoun,0,1951
AAM12,AAM,surrenderstep8,critical,notNoun,92,0,notNoun,1,2321
AAM12,AAM,tobacco,filler,noun,2,1,noun,1,1108
AAM12,AAM,totally,filler,notNoun,4,0,notNoun,1,1111
AAM12,AAM,tutorial,filler,noun,15,1,noun,1,3258
AAM12,AAM,typical,filler,notNoun,77,0,notNoun,1,2496
AAM12,AAM,umbrella,filler,noun,67,1,noun,1,1413
AAM12,AAM,unique,filler,notNoun,80,0,notNoun,1,1427
AAM12,AAM,vibrant,filler,notNoun,59,0,notNoun,1,1074
AAM12,AAM,warrantee,filler,noun,50,0,notNoun,0,1112
AAM12,AAM,weekly,filler,notNoun,41,0,notNoun,1,2003
AAM12,AAM,wrinkle,filler,noun,56,0,notNoun,0,1232
AAM12,AAM,yell,filler,notNoun,33,1,noun,0,1362
AAM12,AAM,yoghurt,filler,noun,69,1,noun,1,1611
AAM13,AAM,acerbicstep12,critical,notNoun,7,0,notNoun,1,1825
AAM13,AAM,alone,filler,notNoun,2,0,notNoun,1,1578
AAM13,AAM,america,filler,noun,18,1,noun,1,1220
AAM13,AAM,anemia,filler,noun,52,0,notNoun,0,1541
AAM13,AAM,animal,filler,noun,92,1,noun,1,1429
AAM13,AAM,annoying,filler,notNoun,98,0,notNoun,1,1083
AAM13,AAM,appear,filler,notNoun,42,0,notNoun,1,1449
AAM13,AAM,around,filler,notNoun,68,1,noun,0,899
AAM13,AAM,avenue,filler,noun,24,0,notNoun,0,1570
AAM13,AAM,bakery,filler,noun,97,1,noun,1,1113
AAM13,AAM,ballerina,filler,noun,29,1,noun,1,963
AAM13,AAM,basementstep11,critical,noun,72,1,noun,1,1077
AAM13,AAM,beauty,filler,noun,33,0,notNoun,0,1124
AAM13,AAM,become,filler,notNoun,93,0,notNoun,1,1184
AAM13,AAM,brain,filler,noun,26,1,noun,1,1138
AAM13,AAM,camera,filler,noun,44,1,noun,1,1138
AAM13,AAM,casserolestep12,critical,noun,67,1,noun,1,1004
AAM13,AAM,ciderstep9,critical,noun,5,1,noun,1,1064
AAM13,AAM,degree,filler,noun,56,1,noun,1,1048
AAM13,AAM,depend,filler,notNoun,95,0,notNoun,1,1315
AAM13,AAM,develop,filler,notNoun,25,0,notNoun,1,1194
AAM13,AAM,document,filler,noun,40,1,noun,1,1070
AAM13,AAM,dragon,filler,noun,66,1,noun,1,941
AAM13,AAM,embody,filler,notNoun,84,0,notNoun,1,1105
AAM13,AAM,energy,filler,noun,16,1,noun,1,1294
AAM13,AAM,engine,filler,noun,87,1,noun,1,1062
AAM13,AAM,enroll,filler,notNoun,61,0,notNoun,1,1543
AAM13,AAM,eternal,filler,notNoun,4,0,notNoun,1,1671
AAM13,AAM,evolve,filler,notNoun,22,1,noun,0,1216
AAM13,AAM,failure,filler,noun,49,0,notNoun,0,1210
AAM13,AAM,family,filler,noun,35,1,noun,1,1153
AAM13,AAM,felony,filler,noun,76,0,notNoun,0,1105
AAM13,AAM,freeze,filler,notNoun,38,0,notNoun,1,1628
AAM13,AAM,fumble,filler,notNoun,62,1,noun,0,1349
AAM13,AAM,garden,filler,noun,57,1,noun,1,991
AAM13,AAM,gasolinestep11,critical,noun,12,1,noun,1,1312
AAM13,AAM,global,filler,notNoun,3,1,noun,0,1017
AAM13,AAM,grapple,filler,notNoun,63,1,noun,0,1756
AAM13,AAM,guilty,filler,notNoun,30,0,notNoun,1,1155
AAM13,AAM,gullible,filler,notNoun,34,0,notNoun,1,1314
AAM13,AAM,hamburger,filler,noun,32,1,noun,1,1105
AAM13,AAM,harmful,filler,notNoun,0,0,notNoun,1,1177
AAM13,AAM,hidden,filler,notNoun,43,0,notNoun,1,1311
AAM13,AAM,honeymoon,filler,noun,31,0,notNoun,0,1360
AAM13,AAM,human,filler,noun,58,1,noun,1,1191
AAM13,AAM,ignore,filler,notNoun,85,0,notNoun,1,1393
AAM13,AAM,image,filler,noun,55,1,noun,1,1045
AAM13,AAM,immoral,filler,notNoun,45,0,notNoun,1,1022
AAM13,AAM,immune,filler,notNoun,65,0,notNoun,1,1157
AAM13,AAM,ironic,filler,notNoun,23,0,notNoun,1,1235
AAM13,AAM,kidnap,filler,notNoun,88,1,noun,0,1338
AAM13,AAM,lawyer,filler,noun,41,1,noun,1,1212
AAM13,AAM,lunatic,filler,notNoun,15,0,notNoun,1,1146
AAM13,AAM,manually,filler,notNoun,64,0,notNoun,1,1261
AAM13,AAM,marina,filler,noun,82,1,noun,1,1075
AAM13,AAM,military,filler,noun,80,1,noun,1,1080
AAM13,AAM,mineral,filler,noun,10,1,noun,1,916
AAM13,AAM,momentary,filler,notNoun,54,0,notNoun,1,1207
AAM13,AAM,occupy,filler,notNoun,39,0,notNoun,1,1582
AAM13,AAM,omelet,filler,noun,8,1,noun,1,995
AAM13,AAM,opaque,filler,notNoun,86,0,notNoun,1,1640
AAM13,AAM,orbital,filler,notNoun,36,1,noun,0,1064
AAM13,AAM,overcome,filler,notNoun,48,0,notNoun,1,1374
AAM13,AAM,parable,filler,noun,79,0,notNoun,0,1093
AAM13,AAM,parrot,filler,noun,13,1,noun,1,993
AAM13,AAM,pineapple,filler,noun,19,1,noun,1,1145
AAM13,AAM,recovery,filler,noun,50,0,notNoun,0,1819
AAM13,AAM,regular,filler,notNoun,83,0,notNoun,1,1511
AAM13,AAM,relate,filler,notNoun,20,0,notNoun,1,1409
AAM13,AAM,remedial,filler,notNoun,17,0,notNoun,1,1241
AAM13,AAM,remind,filler,notNoun,81,0,notNoun,1,1868
AAM13,AAM,romantic,filler,notNoun,78,0,notNoun,1,1495
AAM13,AAM,royalty,filler,noun,89,0,notNoun,0,1408
AAM13,AAM,sabrestep10,critical,noun,74,1,noun,1,1700
AAM13,AAM,saltystep14,critical,notNoun,47,0,notNoun,1,1178
AAM13,AAM,sandalstep11,critical,noun,75,1,noun,1,1782
AAM13,AAM,seaweedstep12,critical,noun,53,1,noun,1,1359
AAM13,AAM,secludedstep10,critical,notNoun,91,0,notNoun,1,1102
AAM13,AAM,secondstep11,critical,noun,60,1,noun,1,1325
AAM13,AAM,severalstep9,critical,notNoun,21,0,notNoun,1,1243
AAM13,AAM,sidewalkstep8,critical,noun,14,1,noun,1,1906
AAM13,AAM,silverstep10,critical,noun,1,1,noun,1,1401
AAM13,AAM,similarstep10,critical,notNoun,69,0,notNoun,1,1150
AAM13,AAM,solidstep12,critical,notNoun,37,1,noun,0,1495
AAM13,AAM,submarinestep10,critical,noun,27,1,noun,1,1313
AAM13,AAM,sufferstep8,critical,notNoun,6,0,notNoun,1,1034
AAM13,AAM,superpowerstep12,critical,noun,11,1,noun,1,1322
AAM13,AAM,surrenderstep8,critical,notNoun,70,0,notNoun,1,1316
AAM13,AAM,tobacco,filler,noun,51,1,noun,1,878
AAM13,AAM,totally,filler,notNoun,9,0,notNoun,1,1429
AAM13,AAM,tutorial,filler,noun,73,1,noun,1,1497
AAM13,AAM,typical,filler,notNoun,59,0,notNoun,1,1390
AAM13,AAM,umbrella,filler,noun,94,1,noun,1,1148
AAM13,AAM,unique,filler,notNoun,28,0,notNoun,1,951
AAM13,AAM,vibrant,filler,notNoun,46,0,notNoun,1,1661
AAM13,AAM,warrantee,filler,noun,96,0,notNoun,0,1336
AAM13,AAM,weekly,filler,notNoun,71,0,notNoun,1,1448
AAM13,AAM,wrinkle,filler,noun,77,1,noun,1,1252
AAM13,AAM,yell,filler,notNoun,99,1,noun,0,1134
AAM13,AAM,yoghurt,filler,noun,90,1,noun,1,925
AAM14,AAM,acerbicstep12,critical,notNoun,7,0,notNoun,1,1563
AAM14,AAM,alone,filler,notNoun,2,0,notNoun,1,1017
AAM14,AAM,america,filler,noun,18,1,noun,1,1651
AAM14,AAM,anemia,filler,noun,52,0,notNoun,0,1266
AAM14,AAM,animal,filler,noun,92,1,noun,1,2148
AAM14,AAM,annoying,filler,notNoun,98,0,notNoun,1,1022
AAM14,AAM,appear,filler,notNoun,42,0,notNoun,1,1298
AAM14,AAM,around,filler,notNoun,68,0,notNoun,1,2033
AAM14,AAM,avenue,filler,noun,24,0,notNoun,0,1542
AAM14,AAM,bakery,filler,noun,97,1,noun,1,967
AAM14,AAM,ballerina,filler,noun,29,1,noun,1,867
AAM14,AAM,basementstep11,critical,noun,72,1,noun,1,1005
AAM14,AAM,beauty,filler,noun,33,0,notNoun,0,1068
AAM14,AAM,become,filler,notNoun,93,0,notNoun,1,1116
AAM14,AAM,brain,filler,noun,26,1,noun,1,1177
AAM14,AAM,camera,filler,noun,44,1,noun,1,1302
AAM14,AAM,casserolestep12,critical,noun,67,1,noun,1,1646
AAM14,AAM,ciderstep9,critical,noun,5,0,notNoun,0,1317
AAM14,AAM,degree,filler,noun,56,1,noun,1,1934
AAM14,AAM,depend,filler,notNoun,95,0,notNoun,1,1246
AAM14,AAM,develop,filler,notNoun,25,0,notNoun,1,1230
AAM14,AAM,document,filler,noun,40,1,noun,1,1406
AAM14,AAM,dragon,filler,noun,66,0,notNoun,0,1178
AAM14,AAM,embody,filler,notNoun,84,0,notNoun,1,1090
AAM14,AAM,energy,filler,noun,16,0,notNoun,0,915
AAM14,AAM,engine,filler,noun,87,1,noun,1,1096
AAM14,AAM,enroll,filler,notNoun,61,1,noun,0,1431
AAM14,AAM,eternal,filler,notNoun,4,0,notNoun,1,1689
AAM14,AAM,evolve,filler,notNoun,22,0,notNoun,1,1347
AAM14,AAM,failure,filler,noun,49,0,notNoun,0,1315
AAM14,AAM,family,filler,noun,35,1,noun,1,1309
AAM14,AAM,felony,filler,noun,76,0,notNoun,0,1065
AAM14,AAM,freeze,filler,notNoun,38,1,noun,0,1209
AAM14,AAM,fumble,filler,notNoun,62,0,notNoun,1,1222
AAM14,AAM,garden,filler,noun,57,1,noun,1,918
AAM14,AAM,gasolinestep11,critical,noun,12,1,noun,1,1286
AAM14,AAM,global,filler,notNoun,3,0,notNoun,1,792
AAM14,AAM,grapple,filler,notNoun,63,1,noun,0,1774
AAM14,AAM,guilty,filler,notNoun,30,0,notNoun,1,1017
AAM14,AAM,gullible,filler,notNoun,34,0,notNoun,1,930
AAM14,AAM,hamburger,filler,noun,32,1,noun,1,1148
AAM14,AAM,harmful,filler,notNoun,0,0,notNoun,1,1042
AAM14,AAM,hidden,filler,notNoun,43,0,notNoun,1,1089
AAM14,AAM,honeymoon,filler,noun,31,0,notNoun,0,1115
AAM14,AAM,human,filler,noun,58,1,noun,1,1459
AAM14,AAM,ignore,filler,notNoun,85,0,notNoun,1,1035
AAM14,AAM,image,filler,noun,55,0,notNoun,0,1188
AAM14,AAM,immoral,filler,notNoun,45,0,notNoun,1,1342
AAM14,AAM,immune,filler,notNoun,65,0,notNoun,1,1152
AAM14,AAM,ironic,filler,notNoun,23,0,notNoun,1,1295
AAM14,AAM,kidnap,filler,notNoun,88,0,notNoun,1,1309
AAM14,AAM,lawyer,filler,noun,41,0,notNoun,0,1432
AAM14,AAM,lunatic,filler,notNoun,15,0,notNoun,1,989
AAM14,AAM,manually,filler,notNoun,64,0,notNoun,1,1216
AAM14,AAM,marina,filler,noun,82,1,noun,1,1628
AAM14,AAM,military,filler,noun,80,1,noun,1,1287
AAM14,AAM,mineral,filler,noun,10,0,notNoun,0,1086
AAM14,AAM,momentary,filler,notNoun,54,0,notNoun,1,1481
AAM14,AAM,occupy,filler,notNoun,39,0,notNoun,1,1450
AAM14,AAM,omelet,filler,noun,8,1,noun,1,1015
AAM14,AAM,opaque,filler,notNoun,86,0,notNoun,1,1140
AAM14,AAM,orbital,filler,notNoun,36,0,notNoun,1,895
AAM14,AAM,overcome,filler,notNoun,48,0,notNoun,1,1323
AAM14,AAM,parable,filler,noun,79,0,notNoun,0,1318
AAM14,AAM,parrot,filler,noun,13,1,noun,1,935
AAM14,AAM,pineapple,filler,noun,19,1,noun,1,884
AAM14,AAM,recovery,filler,noun,50,0,notNoun,0,1579
AAM14,AAM,regular,filler,notNoun,83,0,notNoun,1,1323
AAM14,AAM,relate,filler,notNoun,20,0,notNoun,1,1413
AAM14,AAM,remedial,filler,notNoun,17,0,notNoun,1,1615
AAM14,AAM,remind,filler,notNoun,81,0,notNoun,1,1798
AAM14,AAM,romantic,filler,notNoun,78,0,notNoun,1,1254
AAM14,AAM,royalty,filler,noun,89,0,notNoun,0,1188
AAM14,AAM,sabrestep10,critical,noun,74,0,notNoun,0,1846
AAM14,AAM,saltystep14,critical,notNoun,47,0,notNoun,1,1421
AAM14,AAM,sandalstep11,critical,noun,75,1,noun,1,1442
AAM14,AAM,seaweedstep12,critical,noun,53,1,noun,1,1299
AAM14,AAM,secludedstep10,critical,notNoun,91,0,notNoun,1,1536
AAM14,AAM,secondstep11,critical,noun,60,0,notNoun,0,1224
AAM14,AAM,severalstep9,critical,notNoun,21,0,notNoun,1,1267
AAM14,AAM,sidewalkstep8,critical,noun,14,1,noun,1,1464
AAM14,AAM,silverstep10,critical,noun,1,0,notNoun,0,1552
AAM14,AAM,similarstep10,critical,notNoun,69,0,notNoun,1,1153
AAM14,AAM,solidstep12,critical,notNoun,37,0,notNoun,1,1192
AAM14,AAM,submarinestep10,critical,noun,27,1,noun,1,1284
AAM14,AAM,sufferstep8,critical,notNoun,6,0,notNoun,1,813
AAM14,AAM,superpowerstep12,critical,noun,11,0,notNoun,0,1114
AAM14,AAM,surrenderstep8,critical,notNoun,70,0,notNoun,1,1065
AAM14,AAM,tobacco,filler,noun,51,1,noun,1,1711
AAM14,AAM,totally,filler,notNoun,9,0,notNoun,1,1432
AAM14,AAM,tutorial,filler,noun,73,1,noun,1,2108
AAM14,AAM,typical,filler,notNoun,59,0,notNoun,1,1255
AAM14,AAM,umbrella,filler,noun,94,1,noun,1,978
AAM14,AAM,unique,filler,notNoun,28,0,notNoun,1,1172
AAM14,AAM,vibrant,filler,notNoun,46,0,notNoun,1,1119
AAM14,AAM,warrantee,filler,noun,96,0,notNoun,0,1109
AAM14,AAM,weekly,filler,notNoun,71,0,notNoun,1,1263
AAM14,AAM,wrinkle,filler,noun,77,0,notNoun,0,1255
AAM14,AAM,yell,filler,notNoun,99,1,noun,0,1497
AAM14,AAM,yoghurt,filler,noun,90,1,noun,1,935
AAM15,AAM,acerbicstep12,critical,notNoun,38,1,noun,0,1345
AAM15,AAM,alone,filler,notNoun,49,1,noun,0,1483
AAM15,AAM,america,filler,noun,10,1,noun,1,1101
AAM15,AAM,anemia,filler,noun,63,1,noun,1,1276
AAM15,AAM,animal,filler,noun,97,1,noun,1,846
AAM15,AAM,annoying,filler,notNoun,58,0,notNoun,1,1240
AAM15,AAM,appear,filler,notNoun,46,1,noun,0,1821
AAM15,AAM,around,filler,notNoun,5,0,notNoun,1,1312
AAM15,AAM,avenue,filler,noun,85,1,noun,1,983
AAM15,AAM,bakery,filler,noun,96,1,noun,1,1090
AAM15,AAM,ballerina,filler,noun,13,1,noun,1,1110
AAM15,AAM,basementstep11,critical,noun,87,1,noun,1,933
AAM15,AAM,beauty,filler,noun,29,1,noun,1,921
AAM15,AAM,become,filler,notNoun,20,1,noun,0,1162
AAM15,AAM,brain,filler,noun,67,1,noun,1,821
AAM15,AAM,camera,filler,noun,76,1,noun,1,1056
AAM15,AAM,casserolestep12,critical,noun,42,1,noun,1,1104
AAM15,AAM,ciderstep9,critical,noun,82,1,noun,1,1052
AAM15,AAM,degree,filler,noun,19,1,noun,1,1139
AAM15,AAM,depend,filler,notNoun,84,0,notNoun,1,1122
AAM15,AAM,develop,filler,notNoun,30,0,notNoun,1,1529
AAM15,AAM,document,filler,noun,24,1,noun,1,1349
AAM15,AAM,dragon,filler,noun,53,1,noun,1,1172
AAM15,AAM,embody,filler,notNoun,14,1,noun,0,1111
AAM15,AAM,energy,filler,noun,80,1,noun,1,1445
AAM15,AAM,engine,filler,noun,83,1,noun,1,859
AAM15,AAM,enroll,filler,notNoun,71,1,noun,0,1143
AAM15,AAM,eternal,filler,notNoun,93,1,noun,0,2006
AAM15,AAM,evolve,filler,notNoun,95,0,notNoun,1,1908
AAM15,AAM,failure,filler,noun,94,1,noun,1,925
AAM15,AAM,family,filler,noun,88,1,noun,1,1068
AAM15,AAM,felony,filler,noun,68,1,noun,1,1137
AAM15,AAM,freeze,filler,notNoun,51,1,noun,0,1123
AAM15,AAM,fumble,filler,notNoun,60,1,noun,0,1255
AAM15,AAM,garden,filler,noun,37,1,noun,1,1010
AAM15,AAM,gasolinestep11,critical,noun,22,1,noun,1,1068
AAM15,AAM,global,filler,notNoun,62,1,noun,0,997
AAM15,AAM,grapple,filler,notNoun,41,1,noun,0,1318
AAM15,AAM,guilty,filler,notNoun,69,1,noun,0,916
AAM15,AAM,gullible,filler,notNoun,27,0,notNoun,1,1364
AAM15,AAM,hamburger,filler,noun,55,1,noun,1,1071
AAM15,AAM,harmful,filler,notNoun,1,0,notNoun,1,1424
AAM15,AAM,hidden,filler,notNoun,11,0,notNoun,1,1150
AAM15,AAM,honeymoon,filler,noun,0,1,noun,1,1054
AAM15,AAM,human,filler,noun,36,1,noun,1,967
AAM15,AAM,ignore,filler,notNoun,3,0,notNoun,1,1191
AAM15,AAM,image,filler,noun,78,1,noun,1,1135
AAM15,AAM,immoral,filler,notNoun,74,0,notNoun,1,1222
AAM15,AAM,immune,filler,notNoun,23,1,noun,0,1342
AAM15,AAM,ironic,filler,notNoun,73,0,notNoun,1,1229
AAM15,AAM,kidnap,filler,notNoun,65,1,noun,0,944
AAM15,AAM,lawyer,filler,noun,25,1,noun,1,925
AAM15,AAM,lunatic,filler,notNoun,77,1,noun,0,1104
AAM15,AAM,manually,filler,notNoun,72,1,noun,0,1197
AAM15,AAM,marina,filler,noun,48,1,noun,1,1682
AAM15,AAM,military,filler,noun,54,1,noun,1,1136
AAM15,AAM,mineral,filler,noun,4,1,noun,1,1005
AAM15,AAM,momentary,filler,notNoun,33,1,noun,0,1245
AAM15,AAM,occupy,filler,notNoun,26,1,noun,0,1419
AAM15,AAM,omelet,filler,noun,79,0,notNoun,0,1331
AAM15,AAM,opaque,filler,notNoun,98,0,notNoun,1,1501
AAM15,AAM,orbital,filler,notNoun,40,1,noun,0,958
AAM15,AAM,overcome,filler,notNoun,70,0,notNoun,1,1248
AAM15,AAM,parable,filler,noun,6,1,noun,1,1533
AAM15,AAM,parrot,filler,noun,81,1,noun,1,932
AAM15,AAM,pineapple,filler,noun,45,1,noun,1,852
AAM15,AAM,recovery,filler,noun,39,1,noun,1,1186
AAM15,AAM,regular,filler,notNoun,32,1,noun,0,916
AAM15,AAM,relate,filler,notNoun,28,1,noun,0,1298
AAM15,AAM,remedial,filler,notNoun,57,0,notNoun,1,1160
AAM15,AAM,remind,filler,notNoun,99,0,notNoun,1,1607
AAM15,AAM,romantic,filler,notNoun,64,0,notNoun,1,1802
AAM15,AAM,royalty,filler,noun,66,1,noun,1,1292
AAM15,AAM,sabrestep10,critical,noun,61,1,noun,1,1265
AAM15,AAM,saltystep14,critical,notNoun,56,0,notNoun,1,1282
AAM15,AAM,sandalstep11,critical,noun,90,1,noun,1,1088
AAM15,AAM,seaweedstep12,critical,noun,44,1,noun,1,1206
AAM15,AAM,secludedstep10,critical,notNoun,18,0,notNoun,1,1277
AAM15,AAM,secondstep11,critical,noun,86,1,noun,1,1560
AAM15,AAM,severalstep9,critical,notNoun,43,1,noun,0,1031
AAM15,AAM,sidewalkstep8,critical,noun,50,1,noun,1,1407
AAM15,AAM,silverstep10,critical,noun,89,1,noun,1,1144
AAM15,AAM,similarstep10,critical,notNoun,7,0,notNoun,1,1098
AAM15,AAM,solidstep12,critical,notNoun,75,1,noun,0,971
AAM15,AAM,submarinestep10,critical,noun,12,1,noun,1,1266
AAM15,AAM,sufferstep8,critical,notNoun,8,1,noun,0,1501
AAM15,AAM,superpowerstep12,critical,noun,47,1,noun,1,1224
AAM15,AAM,surrenderstep8,critical,notNoun,31,1,noun,0,1178
AAM15,AAM,tobacco,filler,noun,52,1,noun,1,973
AAM15,AAM,totally,filler,notNoun,59,0,notNoun,1,1316
AAM15,AAM,tutorial,filler,noun,34,1,noun,1,1498
AAM15,AAM,typical,filler,notNoun,2,0,notNoun,1,1020
AAM15,AAM,umbrella,filler,noun,91,1,noun,1,1072
AAM15,AAM,unique,filler,notNoun,15,1,noun,0,1318
AAM15,AAM,vibrant,filler,notNoun,16,1,noun,0,1094
AAM15,AAM,warrantee,filler,noun,35,1,noun,1,1190
AAM15,AAM,weekly,filler,notNoun,9,0,notNoun,1,1363
AAM15,AAM,wrinkle,filler,noun,21,1,noun,1,1179
AAM15,AAM,yell,filler,notNoun,92,1,noun,0,955
AAM15,AAM,yoghurt,filler,noun,17,1,noun,1,1063
AAM16,AAM,acerbicstep12,critical,notNoun,59,0,notNoun,1,2737
AAM16,AAM,alone,filler,notNoun,53,0,notNoun,1,1255
AAM16,AAM,america,filler,noun,2,1,noun,1,898
AAM16,AAM,anemia,filler,noun,60,1,noun,1,3633
AAM16,AAM,animal,filler,noun,27,1,noun,1,838
AAM16,AAM,annoying,filler,notNoun,38,0,notNoun,1,976
AAM16,AAM,appear,filler,notNoun,78,0,notNoun,1,2133
AAM16,AAM,around,filler,notNoun,90,0,notNoun,1,2357
AAM16,AAM,avenue,filler,noun,12,1,noun,1,952
AAM16,AAM,bakery,filler,noun,71,1,noun,1,960
AAM16,AAM,ballerina,filler,noun,79,1,noun,1,960
AAM16,AAM,basementstep11,critical,noun,93,1,noun,1,1300
AAM16,AAM,beauty,filler,noun,39,1,noun,1,2086
AAM16,AAM,become,filler,notNoun,44,0,notNoun,1,2156
AAM16,AAM,brain,filler,noun,62,1,noun,1,1086
AAM16,AAM,camera,filler,noun,33,1,noun,1,965
AAM16,AAM,casserolestep12,critical,noun,43,1,noun,1,1206
AAM16,AAM,ciderstep9,critical,noun,32,1,noun,1,1372
AAM16,AAM,degree,filler,noun,40,1,noun,1,1245
AAM16,AAM,depend,filler,notNoun,89,0,notNoun,1,5708
AAM16,AAM,develop,filler,notNoun,74,0,notNoun,1,1041
AAM16,AAM,document,filler,noun,85,1,noun,1,1064
AAM16,AAM,dragon,filler,noun,9,1,noun,1,735
AAM16,AAM,embody,filler,notNoun,57,0,notNoun,1,1183
AAM16,AAM,energy,filler,noun,31,0,notNoun,0,2323
AAM16,AAM,engine,filler,noun,16,1,noun,1,1020
AAM16,AAM,enroll,filler,notNoun,36,1,noun,0,1907
AAM16,AAM,eternal,filler,notNoun,50,1,noun,0,2524
AAM16,AAM,evolve,filler,notNoun,92,0,notNoun,1,1323
AAM16,AAM,failure,filler,noun,82,0,notNoun,0,1059
AAM16,AAM,family,filler,noun,84,1,noun,1,3561
AAM16,AAM,felony,filler,noun,83,0,notNoun,0,1150
AAM16,AAM,freeze,filler,notNoun,98,0,notNoun,1,1634
AAM16,AAM,fumble,filler,notNoun,3,0,notNoun,1,3582
AAM16,AAM,garden,filler,noun,25,1,noun,1,942
AAM16,AAM,gasolinestep11,critical,noun,22,1,noun,1,972
AAM16,AAM,global,filler,notNoun,97,1,noun,0,969
AAM16,AAM,grapple,filler,notNoun,20,1,noun,0,1350
AAM16,AAM,guilty,filler,notNoun,64,0,notNoun,1,1802
AAM16,AAM,gullible,filler,notNoun,47,0,notNoun,1,1040
AAM16,AAM,hamburger,filler,noun,11,1,noun,1,1048
AAM16,AAM,harmful,filler,notNoun,26,0,notNoun,1,897
AAM16,AAM,hidden,filler,notNoun,76,0,notNoun,1,1019
AAM16,AAM,honeymoon,filler,noun,19,1,noun,1,1260
AAM16,AAM,human,filler,noun,29,1,noun,1,807
AAM16,AAM,ignore,filler,notNoun,30,0,notNoun,1,901
AAM16,AAM,image,filler,noun,23,1,noun,1,2087
AAM16,AAM,immoral,filler,notNoun,45,0,notNoun,1,3108
AAM16,AAM,immune,filler,notNoun,10,0,notNoun,1,2044
AAM16,AAM,ironic,filler,notNoun,67,0,notNoun,1,1336
AAM16,AAM,kidnap,filler,notNoun,73,0,notNoun,1,1479
AAM16,AAM,lawyer,filler,noun,51,1,noun,1,1027
AAM16,AAM,lunatic,filler,notNoun,95,1,noun,0,3614
AAM16,AAM,manually,filler,notNoun,61,0,notNoun,1,1266
AAM16,AAM,marina,filler,noun,37,1,noun,1,929
AAM16,AAM,military,filler,noun,77,0,notNoun,0,1211
AAM16,AAM,mineral,filler,noun,70,1,noun,1,853
AAM16,AAM,momentary,filler,notNoun,21,0,notNoun,1,1215
AAM16,AAM,occupy,filler,notNoun,13,0,notNoun,1,1116
AAM16,AAM,omelet,filler,noun,88,1,noun,1,758
AAM16,AAM,opaque,filler,notNoun,4,1,noun,0,1224
AAM16,AAM,orbital,filler,notNoun,35,1,noun,0,1031
AAM16,AAM,overcome,filler,notNoun,42,0,notNoun,1,1108
AAM16,AAM,parable,filler,noun,63,1,noun,1,2497
AAM16,AAM,parrot,filler,noun,94,1,noun,1,781
AAM16,AAM,pineapple,filler,noun,66,1,noun,1,1884
AAM16,AAM,recovery,filler,noun,87,0,notNoun,0,3087
AAM16,AAM,regular,filler,notNoun,18,0,notNoun,1,3352
AAM16,AAM,relate,filler,notNoun,0,0,notNoun,1,995
AAM16,AAM,remedial,filler,notNoun,55,1,noun,0,2301
AAM16,AAM,remind,filler,notNoun,5,0,notNoun,1,1063
AAM16,AAM,romantic,filler,notNoun,86,0,notNoun,1,1160
AAM16,AAM,royalty,filler,noun,49,0,notNoun,0,1623
AAM16,AAM,sabrestep10,critical,noun,69,0,notNoun,0,2477
AAM16,AAM,saltystep14,critical,notNoun,28,0,notNoun,1,1263
AAM16,AAM,sandalstep11,critical,noun,48,1,noun,1,1164
AAM16,AAM,seaweedstep12,critical,noun,6,1,noun,1,943
AAM16,AAM,secludedstep10,critical,notNoun,34,0,notNoun,1,4334
AAM16,AAM,secondstep11,critical,noun,46,0,notNoun,0,1900
AAM16,AAM,severalstep9,critical,notNoun,24,0,notNoun,1,1951
AAM16,AAM,sidewalkstep8,critical,noun,72,1,noun,1,2801
AAM16,AAM,silverstep10,critical,noun,65,1,noun,1,1875
AAM16,AAM,similarstep10,critical,notNoun,99,0,notNoun,1,1477
AAM16,AAM,solidstep12,critical,notNoun,52,1,noun,0,1281
AAM16,AAM,submarinestep10,critical,noun,54,1,noun,1,1090
AAM16,AAM,sufferstep8,critical,notNoun,15,0,notNoun,1,1314
AAM16,AAM,superpowerstep12,critical,noun,80,1,noun,1,1332
AAM16,AAM,surrenderstep8,critical,notNoun,17,0,notNoun,1,2692
AAM16,AAM,tobacco,filler,noun,56,1,noun,1,896
AAM16,AAM,totally,filler,notNoun,8,0,notNoun,1,2571
AAM16,AAM,tutorial,filler,noun,96,1,noun,1,1467
AAM16,AAM,typical,filler,notNoun,81,0,notNoun,1,1009
AAM16,AAM,umbrella,filler,noun,41,1,noun,1,870
AAM16,AAM,unique,filler,notNoun,58,0,notNoun,1,2464
AAM16,AAM,vibrant,filler,notNoun,75,0,notNoun,1,1172
AAM16,AAM,warrantee,filler,noun,68,1,noun,1,1647
AAM16,AAM,weekly,filler,notNoun,91,0,notNoun,1,1108
AAM16,AAM,wrinkle,filler,noun,14,1,noun,1,1336
AAM16,AAM,yell,filler,notNoun,1,0,notNoun,1,2412
AAM16,AAM,yoghurt,filler,noun,7,1,noun,1,1035
AAM17,AAM,acerbicstep12,critical,notNoun,59,0,notNoun,1,4642
AAM17,AAM,alone,filler,notNoun,53,NA,NA,NA,0
AAM17,AAM,america,filler,noun,2,1,noun,1,859
AAM17,AAM,anemia,filler,noun,60,1,noun,1,5066
AAM17,AAM,animal,filler,noun,27,1,noun,1,880
AAM17,AAM,annoying,filler,notNoun,38,0,notNoun,1,1088
AAM17,AAM,appear,filler,notNoun,78,0,notNoun,1,958
AAM17,AAM,around,filler,notNoun,90,0,notNoun,1,2093
AAM17,AAM,avenue,filler,noun,12,1,noun,1,844
AAM17,AAM,bakery,filler,noun,71,1,noun,1,899
AAM17,AAM,ballerina,filler,noun,79,1,noun,1,854
AAM17,AAM,basementstep11,critical,noun,93,1,noun,1,1514
AAM17,AAM,beauty,filler,noun,39,1,noun,1,2050
AAM17,AAM,become,filler,notNoun,44,0,notNoun,1,3628
AAM17,AAM,brain,filler,noun,62,1,noun,1,766
AAM17,AAM,camera,filler,noun,33,1,noun,1,1073
AAM17,AAM,casserolestep12,critical,noun,43,1,noun,1,1070
AAM17,AAM,ciderstep9,critical,noun,32,1,noun,1,976
AAM17,AAM,degree,filler,noun,40,1,noun,1,857
AAM17,AAM,depend,filler,notNoun,89,0,notNoun,1,1852
AAM17,AAM,develop,filler,notNoun,74,0,notNoun,1,1262
AAM17,AAM,document,filler,noun,85,1,noun,1,710
AAM17,AAM,dragon,filler,noun,9,1,noun,1,814
AAM17,AAM,embody,filler,notNoun,57,1,noun,0,3402
AAM17,AAM,energy,filler,noun,31,1,noun,1,3534
AAM17,AAM,engine,filler,noun,16,1,noun,1,866
AAM17,AAM,enroll,filler,notNoun,36,0,notNoun,1,1455
AAM17,AAM,eternal,filler,notNoun,50,1,noun,0,2914
AAM17,AAM,evolve,filler,notNoun,92,0,notNoun,1,1084
AAM17,AAM,failure,filler,noun,82,0,notNoun,0,1321
AAM17,AAM,family,filler,noun,84,1,noun,1,1118
AAM17,AAM,felony,filler,noun,83,1,noun,1,1070
AAM17,AAM,freeze,filler,notNoun,98,0,notNoun,1,1602
AAM17,AAM,fumble,filler,notNoun,3,0,notNoun,1,1640
AAM17,AAM,garden,filler,noun,25,1,noun,1,649
AAM17,AAM,gasolinestep11,critical,noun,22,1,noun,1,873
AAM17,AAM,global,filler,notNoun,97,1,noun,0,800
AAM17,AAM,grapple,filler,notNoun,20,0,notNoun,1,1897
AAM17,AAM,guilty,filler,notNoun,64,1,noun,0,2233
AAM17,AAM,gullible,filler,notNoun,47,0,notNoun,1,1027
AAM17,AAM,hamburger,filler,noun,11,1,noun,1,1024
AAM17,AAM,harmful,filler,notNoun,26,0,notNoun,1,1009
AAM17,AAM,hidden,filler,notNoun,76,0,notNoun,1,1115
AAM17,AAM,honeymoon,filler,noun,19,1,noun,1,828
AAM17,AAM,human,filler,noun,29,1,noun,1,801
AAM17,AAM,ignore,filler,notNoun,30,0,notNoun,1,1230
AAM17,AAM,image,filler,noun,23,1,noun,1,691
AAM17,AAM,immoral,filler,notNoun,45,1,noun,0,1704
AAM17,AAM,immune,filler,notNoun,10,0,notNoun,1,2328
AAM17,AAM,ironic,filler,notNoun,67,0,notNoun,1,1158
AAM17,AAM,kidnap,filler,notNoun,73,1,noun,0,1175
AAM17,AAM,lawyer,filler,noun,51,1,noun,1,899
AAM17,AAM,lunatic,filler,notNoun,95,0,notNoun,1,1005
AAM17,AAM,manually,filler,notNoun,61,0,notNoun,1,2070
AAM17,AAM,marina,filler,noun,37,1,noun,1,1540
AAM17,AAM,military,filler,noun,77,1,noun,1,837
AAM17,AAM,mineral,filler,noun,70,1,noun,1,665
AAM17,AAM,momentary,filler,notNoun,21,0,notNoun,1,1436
AAM17,AAM,occupy,filler,notNoun,13,0,notNoun,1,1389
AAM17,AAM,omelet,filler,noun,88,1,noun,1,899
AAM17,AAM,opaque,filler,notNoun,4,1,noun,0,1312
AAM17,AAM,orbital,filler,notNoun,35,1,noun,0,1750
AAM17,AAM,overcome,filler,notNoun,42,0,notNoun,1,1304
AAM17,AAM,parable,filler,noun,63,1,noun,1,1273
AAM17,AAM,parrot,filler,noun,94,1,noun,1,591
AAM17,AAM,pineapple,filler,noun,66,1,noun,1,708
AAM17,AAM,recovery,filler,noun,87,0,notNoun,0,959
AAM17,AAM,regular,filler,notNoun,18,1,noun,0,1005
AAM17,AAM,relate,filler,notNoun,0,0,notNoun,1,1355
AAM17,AAM,remedial,filler,notNoun,55,0,notNoun,1,1075
AAM17,AAM,remind,filler,notNoun,5,0,notNoun,1,3294
AAM17,AAM,romantic,filler,notNoun,86,1,noun,0,844
AAM17,AAM,royalty,filler,noun,49,1,noun,1,1908
AAM17,AAM,sabrestep10,critical,noun,69,1,noun,1,2723
AAM17,AAM,saltystep14,critical,notNoun,28,1,noun,0,2528
AAM17,AAM,sandalstep11,critical,noun,48,1,noun,1,1018
AAM17,AAM,seaweedstep12,critical,noun,6,1,noun,1,1344
AAM17,AAM,secludedstep10,critical,notNoun,34,0,notNoun,1,2265
AAM17,AAM,secondstep11,critical,noun,46,0,notNoun,0,1012
AAM17,AAM,severalstep9,critical,notNoun,24,0,notNoun,1,4097
AAM17,AAM,sidewalkstep8,critical,noun,72,1,noun,1,3016
AAM17,AAM,silverstep10,critical,noun,65,1,noun,1,847
AAM17,AAM,similarstep10,critical,notNoun,99,0,notNoun,1,1283
AAM17,AAM,solidstep12,critical,notNoun,52,1,noun,0,1188
AAM17,AAM,submarinestep10,critical,noun,54,1,noun,1,1216
AAM17,AAM,sufferstep8,critical,notNoun,15,0,notNoun,1,2203
AAM17,AAM,superpowerstep12,critical,noun,80,1,noun,1,1126
AAM17,AAM,surrenderstep8,critical,notNoun,17,0,notNoun,1,1548
AAM17,AAM,tobacco,filler,noun,56,1,noun,1,890
AAM17,AAM,totally,filler,notNoun,8,0,notNoun,1,1386
AAM17,AAM,tutorial,filler,noun,96,1,noun,1,1089
AAM17,AAM,typical,filler,notNoun,81,0,notNoun,1,1290
AAM17,AAM,umbrella,filler,noun,41,1,noun,1,1600
AAM17,AAM,unique,filler,notNoun,58,1,noun,0,1126
AAM17,AAM,vibrant,filler,notNoun,75,0,notNoun,1,1432
AAM17,AAM,warrantee,filler,noun,68,1,noun,1,1086
AAM17,AAM,weekly,filler,notNoun,91,0,notNoun,1,1315
AAM17,AAM,wrinkle,filler,noun,14,1,noun,1,2983
AAM17,AAM,yell,filler,notNoun,1,0,notNoun,1,1788
AAM17,AAM,yoghurt,filler,noun,7,1,noun,1,877
AAM18,AAM,acerbicstep12,critical,notNoun,59,0,notNoun,1,2972
AAM18,AAM,alone,filler,notNoun,53,0,notNoun,1,1181
AAM18,AAM,america,filler,noun,2,1,noun,1,834
AAM18,AAM,anemia,filler,noun,60,1,noun,1,1256
AAM18,AAM,animal,filler,noun,27,0,notNoun,0,854
AAM18,AAM,annoying,filler,notNoun,38,0,notNoun,1,927
AAM18,AAM,appear,filler,notNoun,78,0,notNoun,1,1986
AAM18,AAM,around,filler,notNoun,90,0,notNoun,1,1172
AAM18,AAM,avenue,filler,noun,12,1,noun,1,1016
AAM18,AAM,bakery,filler,noun,71,1,noun,1,944
AAM18,AAM,ballerina,filler,noun,79,1,noun,1,1441
AAM18,AAM,basementstep11,critical,noun,93,1,noun,1,1896
AAM18,AAM,beauty,filler,noun,39,1,noun,1,742
AAM18,AAM,become,filler,notNoun,44,0,notNoun,1,3395
AAM18,AAM,brain,filler,noun,62,1,noun,1,1384
AAM18,AAM,camera,filler,noun,33,1,noun,1,1040
AAM18,AAM,casserolestep12,critical,noun,43,1,noun,1,1318
AAM18,AAM,ciderstep9,critical,noun,32,1,noun,1,1020
AAM18,AAM,degree,filler,noun,40,0,notNoun,0,2104
AAM18,AAM,depend,filler,notNoun,89,0,notNoun,1,997
AAM18,AAM,develop,filler,notNoun,74,0,notNoun,1,1405
AAM18,AAM,document,filler,noun,85,1,noun,1,1458
AAM18,AAM,dragon,filler,noun,9,1,noun,1,1445
AAM18,AAM,embody,filler,notNoun,57,0,notNoun,1,1058
AAM18,AAM,energy,filler,noun,31,1,noun,1,1480
AAM18,AAM,engine,filler,noun,16,1,noun,1,881
AAM18,AAM,enroll,filler,notNoun,36,0,notNoun,1,1170
AAM18,AAM,eternal,filler,notNoun,50,0,notNoun,1,3302
AAM18,AAM,evolve,filler,notNoun,92,0,notNoun,1,1013
AAM18,AAM,failure,filler,noun,82,1,noun,1,1326
AAM18,AAM,family,filler,noun,84,1,noun,1,1409
AAM18,AAM,felony,filler,noun,83,1,noun,1,989
AAM18,AAM,freeze,filler,notNoun,98,0,notNoun,1,1313
AAM18,AAM,fumble,filler,notNoun,3,0,notNoun,1,1026
AAM18,AAM,garden,filler,noun,25,1,noun,1,938
AAM18,AAM,gasolinestep11,critical,noun,22,1,noun,1,1243
AAM18,AAM,global,filler,notNoun,97,0,notNoun,1,1144
AAM18,AAM,grapple,filler,notNoun,20,0,notNoun,1,903
AAM18,AAM,guilty,filler,notNoun,64,0,notNoun,1,734
AAM18,AAM,gullible,filler,notNoun,47,0,notNoun,1,1220
AAM18,AAM,hamburger,filler,noun,11,1,noun,1,899
AAM18,AAM,harmful,filler,notNoun,26,0,notNoun,1,1106
AAM18,AAM,hidden,filler,notNoun,76,0,notNoun,1,1538
AAM18,AAM,honeymoon,filler,noun,19,1,noun,1,1728
AAM18,AAM,human,filler,noun,29,1,noun,1,788
AAM18,AAM,ignore,filler,notNoun,30,0,notNoun,1,880
AAM18,AAM,image,filler,noun,23,1,noun,1,1005
AAM18,AAM,immoral,filler,notNoun,45,0,notNoun,1,1202
AAM18,AAM,immune,filler,notNoun,10,0,notNoun,1,2517
AAM18,AAM,ironic,filler,notNoun,67,0,notNoun,1,1018
AAM18,AAM,kidnap,filler,notNoun,73,0,notNoun,1,1343
AAM18,AAM,lawyer,filler,noun,51,1,noun,1,943
AAM18,AAM,lunatic,filler,notNoun,95,1,noun,0,1124
AAM18,AAM,manually,filler,notNoun,61,0,notNoun,1,1034
AAM18,AAM,marina,filler,noun,37,1,noun,1,1277
AAM18,AAM,military,filler,noun,77,1,noun,1,1439
AAM18,AAM,mineral,filler,noun,70,1,noun,1,1199
AAM18,AAM,momentary,filler,notNoun,21,0,notNoun,1,1060
AAM18,AAM,occupy,filler,notNoun,13,0,notNoun,1,951
AAM18,AAM,omelet,filler,noun,88,1,noun,1,1222
AAM18,AAM,opaque,filler,notNoun,4,0,notNoun,1,1465
AAM18,AAM,orbital,filler,notNoun,35,1,noun,0,1088
AAM18,AAM,overcome,filler,notNoun,42,0,notNoun,1,2788
AAM18,AAM,parable,filler,noun,63,1,noun,1,1284
AAM18,AAM,parrot,filler,noun,94,1,noun,1,886
AAM18,AAM,pineapple,filler,noun,66,1,noun,1,833
AAM18,AAM,recovery,filler,noun,87,0,notNoun,0,855
AAM18,AAM,regular,filler,notNoun,18,0,notNoun,1,1291
AAM18,AAM,relate,filler,notNoun,0,0,notNoun,1,1068
AAM18,AAM,remedial,filler,notNoun,55,0,notNoun,1,1401
AAM18,AAM,remind,filler,notNoun,5,0,notNoun,1,911
AAM18,AAM,romantic,filler,notNoun,86,0,notNoun,1,1147
AAM18,AAM,royalty,filler,noun,49,1,noun,1,2474
AAM18,AAM,sabrestep10,critical,noun,69,0,notNoun,0,1782
AAM18,AAM,saltystep14,critical,notNoun,28,0,notNoun,1,1103
AAM18,AAM,sandalstep11,critical,noun,48,1,noun,1,1220
AAM18,AAM,seaweedstep12,critical,noun,6,1,noun,1,1438
AAM18,AAM,secludedstep10,critical,notNoun,34,0,notNoun,1,1160
AAM18,AAM,secondstep11,critical,noun,46,0,notNoun,0,1109
AAM18,AAM,severalstep9,critical,notNoun,24,0,notNoun,1,1726
AAM18,AAM,sidewalkstep8,critical,noun,72,1,noun,1,1973
AAM18,AAM,silverstep10,critical,noun,65,1,noun,1,923
AAM18,AAM,similarstep10,critical,notNoun,99,0,notNoun,1,1220
AAM18,AAM,solidstep12,critical,notNoun,52,1,noun,0,1017
AAM18,AAM,submarinestep10,critical,noun,54,1,noun,1,941
AAM18,AAM,sufferstep8,critical,notNoun,15,0,notNoun,1,1828
AAM18,AAM,superpowerstep12,critical,noun,80,1,noun,1,1474
AAM18,AAM,surrenderstep8,critical,notNoun,17,0,notNoun,1,2556
AAM18,AAM,tobacco,filler,noun,56,1,noun,1,1235
AAM18,AAM,totally,filler,notNoun,8,0,notNoun,1,1414
AAM18,AAM,tutorial,filler,noun,96,1,noun,1,1217
AAM18,AAM,typical,filler,notNoun,81,0,notNoun,1,1387
AAM18,AAM,umbrella,filler,noun,41,1,noun,1,1001
AAM18,AAM,unique,filler,notNoun,58,0,notNoun,1,737
AAM18,AAM,vibrant,filler,notNoun,75,0,notNoun,1,1380
AAM18,AAM,warrantee,filler,noun,68,1,noun,1,943
AAM18,AAM,weekly,filler,notNoun,91,0,notNoun,1,3098
AAM18,AAM,wrinkle,filler,noun,14,0,notNoun,0,2513
AAM18,AAM,yell,filler,notNoun,1,0,notNoun,1,1643
AAM18,AAM,yoghurt,filler,noun,7,1,noun,1,905
AAM19,AAM,acerbicstep12,critical,notNoun,63,0,notNoun,1,1156
AAM19,AAM,alone,filler,notNoun,77,0,notNoun,1,1090
AAM19,AAM,america,filler,noun,10,1,noun,1,2790
AAM19,AAM,anemia,filler,noun,56,0,notNoun,0,855
AAM19,AAM,animal,filler,noun,42,1,noun,1,1061
AAM19,AAM,annoying,filler,notNoun,37,0,notNoun,1,969
AAM19,AAM,appear,filler,notNoun,27,0,notNoun,1,985
AAM19,AAM,around,filler,notNoun,36,0,notNoun,1,1095
AAM19,AAM,avenue,filler,noun,38,0,notNoun,0,1274
AAM19,AAM,bakery,filler,noun,79,1,noun,1,1665
AAM19,AAM,ballerina,filler,noun,65,1,noun,1,2574
AAM19,AAM,basementstep11,critical,noun,33,1,noun,1,2259
AAM19,AAM,beauty,filler,noun,90,0,notNoun,0,983
AAM19,AAM,become,filler,notNoun,55,0,notNoun,1,1240
AAM19,AAM,brain,filler,noun,54,1,noun,1,1762
AAM19,AAM,camera,filler,noun,20,1,noun,1,1030
AAM19,AAM,casserolestep12,critical,noun,3,0,notNoun,0,1080
AAM19,AAM,ciderstep9,critical,noun,5,NA,NA,NA,0
AAM19,AAM,degree,filler,noun,57,1,noun,1,2077
AAM19,AAM,depend,filler,notNoun,72,0,notNoun,1,1407
AAM19,AAM,develop,filler,notNoun,70,0,notNoun,1,1113
AAM19,AAM,document,filler,noun,58,0,notNoun,0,1367
AAM19,AAM,dragon,filler,noun,61,1,noun,1,1741
AAM19,AAM,embody,filler,notNoun,28,0,notNoun,1,1338
AAM19,AAM,energy,filler,noun,16,0,notNoun,0,1149
AAM19,AAM,engine,filler,noun,46,1,noun,1,2009
AAM19,AAM,enroll,filler,notNoun,82,0,notNoun,1,1273
AAM19,AAM,eternal,filler,notNoun,67,0,notNoun,1,1705
AAM19,AAM,evolve,filler,notNoun,18,0,notNoun,1,1035
AAM19,AAM,failure,filler,noun,97,0,notNoun,0,924
AAM19,AAM,family,filler,noun,11,NA,NA,NA,0
AAM19,AAM,felony,filler,noun,34,0,notNoun,0,1293
AAM19,AAM,freeze,filler,notNoun,2,0,notNoun,1,1401
AAM19,AAM,fumble,filler,notNoun,0,0,notNoun,1,1146
AAM19,AAM,garden,filler,noun,44,1,noun,1,1454
AAM19,AAM,gasolinestep11,critical,noun,69,1,noun,1,1364
AAM19,AAM,global,filler,notNoun,39,0,notNoun,1,1774
AAM19,AAM,grapple,filler,notNoun,52,0,notNoun,1,716
AAM19,AAM,guilty,filler,notNoun,31,0,notNoun,1,934
AAM19,AAM,gullible,filler,notNoun,73,0,notNoun,1,1135
AAM19,AAM,hamburger,filler,noun,66,1,noun,1,1370
AAM19,AAM,harmful,filler,notNoun,49,0,notNoun,1,1096
AAM19,AAM,hidden,filler,notNoun,48,0,notNoun,1,1235
AAM19,AAM,honeymoon,filler,noun,12,1,noun,1,1628
AAM19,AAM,human,filler,noun,25,1,noun,1,948
AAM19,AAM,ignore,filler,notNoun,71,0,notNoun,1,1010
AAM19,AAM,image,filler,noun,24,1,noun,1,1358
AAM19,AAM,immoral,filler,notNoun,13,0,notNoun,1,2402
AAM19,AAM,immune,filler,notNoun,75,0,notNoun,1,1009
AAM19,AAM,ironic,filler,notNoun,4,0,notNoun,1,1141
AAM19,AAM,kidnap,filler,notNoun,21,0,notNoun,1,1159
AAM19,AAM,lawyer,filler,noun,98,1,noun,1,2614
AAM19,AAM,lunatic,filler,notNoun,22,0,notNoun,1,1387
AAM19,AAM,manually,filler,notNoun,89,0,notNoun,1,1831
AAM19,AAM,marina,filler,noun,29,1,noun,1,2208
AAM19,AAM,military,filler,noun,78,1,noun,1,3143
AAM19,AAM,mineral,filler,noun,87,1,noun,1,1569
AAM19,AAM,momentary,filler,notNoun,83,0,notNoun,1,1026
AAM19,AAM,occupy,filler,notNoun,76,0,notNoun,1,940
AAM19,AAM,omelet,filler,noun,45,1,noun,1,985
AAM19,AAM,opaque,filler,notNoun,84,0,notNoun,1,1694
AAM19,AAM,orbital,filler,notNoun,59,0,notNoun,1,1563
AAM19,AAM,overcome,filler,notNoun,8,0,notNoun,1,985
AAM19,AAM,parable,filler,noun,14,0,notNoun,0,1001
AAM19,AAM,parrot,filler,noun,41,1,noun,1,1225
AAM19,AAM,pineapple,filler,noun,7,1,noun,1,1252
AAM19,AAM,recovery,filler,noun,68,0,notNoun,0,1018
AAM19,AAM,regular,filler,notNoun,91,0,notNoun,1,1500
AAM19,AAM,relate,filler,notNoun,62,0,notNoun,1,1197
AAM19,AAM,remedial,filler,notNoun,94,0,notNoun,1,980
AAM19,AAM,remind,filler,notNoun,86,0,notNoun,1,1375
AAM19,AAM,romantic,filler,notNoun,95,0,notNoun,1,985
AAM19,AAM,royalty,filler,noun,74,0,notNoun,0,1751
AAM19,AAM,sabrestep10,critical,noun,92,1,noun,1,3548
AAM19,AAM,saltystep14,critical,notNoun,6,0,notNoun,1,1932
AAM19,AAM,sandalstep11,critical,noun,32,1,noun,1,1313
AAM19,AAM,seaweedstep12,critical,noun,50,1,noun,1,1245
AAM19,AAM,secludedstep10,critical,notNoun,30,0,notNoun,1,1192
AAM19,AAM,secondstep11,critical,noun,88,0,notNoun,0,1207
AAM19,AAM,severalstep9,critical,notNoun,15,0,notNoun,1,1437
AAM19,AAM,sidewalkstep8,critical,noun,64,1,noun,1,1392
AAM19,AAM,silverstep10,critical,noun,93,1,noun,1,1806
AAM19,AAM,similarstep10,critical,notNoun,47,0,notNoun,1,1492
AAM19,AAM,solidstep12,critical,notNoun,80,0,notNoun,1,2779
AAM19,AAM,submarinestep10,critical,noun,53,1,noun,1,1423
AAM19,AAM,sufferstep8,critical,notNoun,60,0,notNoun,1,837
AAM19,AAM,superpowerstep12,critical,noun,35,0,notNoun,0,2293
AAM19,AAM,surrenderstep8,critical,notNoun,43,0,notNoun,1,1159
AAM19,AAM,tobacco,filler,noun,9,1,noun,1,1808
AAM19,AAM,totally,filler,notNoun,40,0,notNoun,1,1114
AAM19,AAM,tutorial,filler,noun,19,0,notNoun,0,925
AAM19,AAM,typical,filler,notNoun,81,0,notNoun,1,942
AAM19,AAM,umbrella,filler,noun,23,1,noun,1,1278
AAM19,AAM,unique,filler,notNoun,51,1,noun,0,5533
AAM19,AAM,vibrant,filler,notNoun,17,0,notNoun,1,4380
AAM19,AAM,warrantee,filler,noun,1,0,notNoun,0,1250
AAM19,AAM,weekly,filler,notNoun,96,0,notNoun,1,962
AAM19,AAM,wrinkle,filler,noun,26,0,notNoun,0,920
AAM19,AAM,yell,filler,notNoun,85,0,notNoun,1,2961
AAM19,AAM,yoghurt,filler,noun,99,1,noun,1,904
AAM20,AAM,acerbicstep12,critical,notNoun,21,0,notNoun,1,920
AAM20,AAM,alone,filler,notNoun,81,0,notNoun,1,886
AAM20,AAM,america,filler,noun,67,0,notNoun,0,821
AAM20,AAM,anemia,filler,noun,52,0,notNoun,0,855
AAM20,AAM,animal,filler,noun,86,1,noun,1,766
AAM20,AAM,annoying,filler,notNoun,40,1,noun,0,1055
AAM20,AAM,appear,filler,notNoun,54,0,notNoun,1,985
AAM20,AAM,around,filler,notNoun,92,0,notNoun,1,1285
AAM20,AAM,avenue,filler,noun,63,0,notNoun,0,809
AAM20,AAM,bakery,filler,noun,38,1,noun,1,848
AAM20,AAM,ballerina,filler,noun,28,1,noun,1,832
AAM20,AAM,basementstep11,critical,noun,35,0,notNoun,0,902
AAM20,AAM,beauty,filler,noun,17,0,notNoun,0,863
AAM20,AAM,become,filler,notNoun,6,0,notNoun,1,1287
AAM20,AAM,brain,filler,noun,76,1,noun,1,947
AAM20,AAM,camera,filler,noun,55,1,noun,1,718
AAM20,AAM,casserolestep12,critical,noun,39,1,noun,1,1006
AAM20,AAM,ciderstep9,critical,noun,12,0,notNoun,0,886
AAM20,AAM,degree,filler,noun,22,1,noun,1,758
AAM20,AAM,depend,filler,notNoun,44,0,notNoun,1,1125
AAM20,AAM,develop,filler,notNoun,24,1,noun,0,1087
AAM20,AAM,document,filler,noun,83,0,notNoun,0,1135
AAM20,AAM,dragon,filler,noun,61,1,noun,1,1401
AAM20,AAM,embody,filler,notNoun,53,0,notNoun,1,1026
AAM20,AAM,energy,filler,noun,2,0,notNoun,0,826
AAM20,AAM,engine,filler,noun,74,1,noun,1,695
AAM20,AAM,enroll,filler,notNoun,60,0,notNoun,1,863
AAM20,AAM,eternal,filler,notNoun,75,0,notNoun,1,1117
AAM20,AAM,evolve,filler,notNoun,45,0,notNoun,1,734
AAM20,AAM,failure,filler,noun,95,0,notNoun,0,1419
AAM20,AAM,family,filler,noun,85,1,noun,1,830
AAM20,AAM,felony,filler,noun,69,1,noun,1,1072
AAM20,AAM,freeze,filler,notNoun,77,0,notNoun,1,1191
AAM20,AAM,fumble,filler,notNoun,43,0,notNoun,1,1324
AAM20,AAM,garden,filler,noun,46,1,noun,1,807
AAM20,AAM,gasolinestep11,critical,noun,27,1,noun,1,883
AAM20,AAM,global,filler,notNoun,3,1,noun,0,730
AAM20,AAM,grapple,filler,notNoun,16,0,notNoun,1,1030
AAM20,AAM,guilty,filler,notNoun,37,0,notNoun,1,770
AAM20,AAM,gullible,filler,notNoun,14,0,notNoun,1,1177
AAM20,AAM,hamburger,filler,noun,70,0,notNoun,0,789
AAM20,AAM,harmful,filler,notNoun,33,0,notNoun,1,897
AAM20,AAM,hidden,filler,notNoun,94,0,notNoun,1,952
AAM20,AAM,honeymoon,filler,noun,42,0,notNoun,0,1074
AAM20,AAM,human,filler,noun,31,1,noun,1,849
AAM20,AAM,ignore,filler,notNoun,59,0,notNoun,1,801
AAM20,AAM,image,filler,noun,89,1,noun,1,1004
AAM20,AAM,immoral,filler,notNoun,19,0,notNoun,1,1076
AAM20,AAM,immune,filler,notNoun,1,0,notNoun,1,1198
AAM20,AAM,ironic,filler,notNoun,79,0,notNoun,1,1102
AAM20,AAM,kidnap,filler,notNoun,88,1,noun,0,987
AAM20,AAM,lawyer,filler,noun,56,1,noun,1,878
AAM20,AAM,lunatic,filler,notNoun,15,1,noun,0,771
AAM20,AAM,manually,filler,notNoun,9,0,notNoun,1,888
AAM20,AAM,marina,filler,noun,78,1,noun,1,1145
AAM20,AAM,military,filler,noun,64,1,noun,1,736
AAM20,AAM,mineral,filler,noun,36,1,noun,1,1023
