"","Subject","Condition","word","wordType","grammarType","trial","nounAnswer","nounAnswer2","accuracy","rt"
"101","AAM02","AAM","acerbicstep12","critical","notNoun",84,0,"notNoun",1,1791
"102","AAM02","AAM","alone","filler","notNoun",55,0,"notNoun",1,1302
"103","AAM02","AAM","america","filler","noun",48,1,"noun",1,1593
"104","AAM02","AAM","anemia","filler","noun",1,0,"notNoun",0,1082
"105","AAM02","AAM","animal","filler","noun",59,1,"noun",1,686
"106","AAM02","AAM","annoying","filler","notNoun",24,0,"notNoun",1,873
"107","AAM02","AAM","appear","filler","notNoun",88,0,"notNoun",1,932
"108","AAM02","AAM","around","filler","notNoun",82,0,"notNoun",1,811
"109","AAM02","AAM","avenue","filler","noun",32,0,"notNoun",0,1747
"110","AAM02","AAM","bakery","filler","noun",57,1,"noun",1,855
"111","AAM02","AAM","ballerina","filler","noun",21,1,"noun",1,717
"112","AAM02","AAM","basementstep11","critical","noun",25,1,"noun",1,746
"113","AAM02","AAM","beauty","filler","noun",4,0,"notNoun",0,2411
"114","AAM02","AAM","become","filler","notNoun",13,0,"notNoun",1,1631
"115","AAM02","AAM","brain","filler","noun",69,1,"noun",1,1239
"116","AAM02","AAM","camera","filler","noun",6,1,"noun",1,788
"117","AAM02","AAM","casserolestep12","critical","noun",86,1,"noun",1,1182
"118","AAM02","AAM","ciderstep9","critical","noun",94,0,"notNoun",0,1965
"119","AAM02","AAM","degree","filler","noun",30,1,"noun",1,1555
"120","AAM02","AAM","depend","filler","notNoun",76,0,"notNoun",1,2010
"121","AAM02","AAM","develop","filler","notNoun",81,0,"notNoun",1,1084
"122","AAM02","AAM","document","filler","noun",20,1,"noun",1,2175
"123","AAM02","AAM","dragon","filler","noun",99,1,"noun",1,865
"124","AAM02","AAM","embody","filler","notNoun",75,0,"notNoun",1,1137
"125","AAM02","AAM","energy","filler","noun",58,0,"notNoun",0,922
"126","AAM02","AAM","engine","filler","noun",70,1,"noun",1,967
"127","AAM02","AAM","enroll","filler","notNoun",80,0,"notNoun",1,911
"128","AAM02","AAM","eternal","filler","notNoun",78,0,"notNoun",1,1209
"129","AAM02","AAM","evolve","filler","notNoun",15,0,"notNoun",1,1152
"130","AAM02","AAM","failure","filler","noun",33,0,"notNoun",0,1393
"131","AAM02","AAM","family","filler","noun",27,1,"noun",1,1031
"132","AAM02","AAM","felony","filler","noun",74,0,"notNoun",0,1068
"133","AAM02","AAM","freeze","filler","notNoun",98,0,"notNoun",1,1449
"134","AAM02","AAM","fumble","filler","notNoun",42,0,"notNoun",1,1223
"135","AAM02","AAM","garden","filler","noun",68,1,"noun",1,1230
"136","AAM02","AAM","gasolinestep11","critical","noun",3,1,"noun",1,800
"137","AAM02","AAM","global","filler","notNoun",89,0,"notNoun",1,1700
"138","AAM02","AAM","grapple","filler","notNoun",23,0,"notNoun",1,2184
"139","AAM02","AAM","guilty","filler","notNoun",38,0,"notNoun",1,888
"140","AAM02","AAM","gullible","filler","notNoun",47,0,"notNoun",1,648
"141","AAM02","AAM","hamburger","filler","noun",14,1,"noun",1,966
"142","AAM02","AAM","harmful","filler","notNoun",37,0,"notNoun",1,1111
"143","AAM02","AAM","hidden","filler","notNoun",60,0,"notNoun",1,1154
"144","AAM02","AAM","honeymoon","filler","noun",65,0,"notNoun",0,1290
"145","AAM02","AAM","human","filler","noun",17,1,"noun",1,703
"146","AAM02","AAM","ignore","filler","notNoun",29,0,"notNoun",1,818
"147","AAM02","AAM","image","filler","noun",73,1,"noun",1,973
"148","AAM02","AAM","immoral","filler","notNoun",9,0,"notNoun",1,1006
"149","AAM02","AAM","immune","filler","notNoun",92,0,"notNoun",1,2511
"150","AAM02","AAM","ironic","filler","notNoun",45,0,"notNoun",1,1044
"151","AAM02","AAM","kidnap","filler","notNoun",31,0,"notNoun",1,1005
"152","AAM02","AAM","lawyer","filler","noun",2,1,"noun",1,917
"153","AAM02","AAM","lunatic","filler","notNoun",83,1,"noun",0,1828
"154","AAM02","AAM","manually","filler","notNoun",96,0,"notNoun",1,1082
"155","AAM02","AAM","marina","filler","noun",44,1,"noun",1,1095
"156","AAM02","AAM","military","filler","noun",35,1,"noun",1,910
"157","AAM02","AAM","mineral","filler","noun",52,1,"noun",1,979
"158","AAM02","AAM","momentary","filler","notNoun",28,0,"notNoun",1,1468
"159","AAM02","AAM","occupy","filler","notNoun",46,0,"notNoun",1,1118
"160","AAM02","AAM","omelet","filler","noun",19,1,"noun",1,977
"161","AAM02","AAM","opaque","filler","notNoun",62,0,"notNoun",1,1575
"162","AAM02","AAM","orbital","filler","notNoun",67,0,"notNoun",1,914
"163","AAM02","AAM","overcome","filler","notNoun",93,0,"notNoun",1,960
"164","AAM02","AAM","parable","filler","noun",56,0,"notNoun",0,1560
"165","AAM02","AAM","parrot","filler","noun",5,1,"noun",1,794
"166","AAM02","AAM","pineapple","filler","noun",7,1,"noun",1,935
"167","AAM02","AAM","recovery","filler","noun",39,0,"notNoun",0,1235
"168","AAM02","AAM","regular","filler","notNoun",54,0,"notNoun",1,1883
"169","AAM02","AAM","relate","filler","notNoun",90,0,"notNoun",1,1298
"170","AAM02","AAM","remedial","filler","notNoun",49,0,"notNoun",1,1280
"171","AAM02","AAM","remind","filler","notNoun",18,0,"notNoun",1,947
"172","AAM02","AAM","romantic","filler","notNoun",79,0,"notNoun",1,1144
"173","AAM02","AAM","royalty","filler","noun",72,1,"noun",1,2082
"174","AAM02","AAM","sabrestep10","critical","noun",50,0,"notNoun",0,2250
"175","AAM02","AAM","saltystep14","critical","notNoun",34,0,"notNoun",1,1586
"176","AAM02","AAM","sandalstep11","critical","noun",11,1,"noun",1,1005
"177","AAM02","AAM","seaweedstep12","critical","noun",16,1,"noun",1,1250
"178","AAM02","AAM","secludedstep10","critical","notNoun",0,0,"notNoun",1,1227
"179","AAM02","AAM","secondstep11","critical","noun",51,0,"notNoun",0,1308
"180","AAM02","AAM","severalstep9","critical","notNoun",36,0,"notNoun",1,1487
"181","AAM02","AAM","sidewalkstep8","critical","noun",8,1,"noun",1,2129
"182","AAM02","AAM","silverstep10","critical","noun",26,1,"noun",1,943
"183","AAM02","AAM","similarstep10","critical","notNoun",12,0,"notNoun",1,1422
"184","AAM02","AAM","solidstep12","critical","notNoun",53,1,"noun",0,1319
"185","AAM02","AAM","submarinestep10","critical","noun",22,1,"noun",1,1429
"186","AAM02","AAM","sufferstep8","critical","notNoun",97,0,"notNoun",1,946
"187","AAM02","AAM","superpowerstep12","critical","noun",41,0,"notNoun",0,1210
"188","AAM02","AAM","surrenderstep8","critical","notNoun",43,0,"notNoun",1,923
"189","AAM02","AAM","tobacco","filler","noun",77,1,"noun",1,1043
"190","AAM02","AAM","totally","filler","notNoun",91,0,"notNoun",1,1295
"191","AAM02","AAM","tutorial","filler","noun",85,0,"notNoun",0,991
"192","AAM02","AAM","typical","filler","notNoun",95,0,"notNoun",1,758
"193","AAM02","AAM","umbrella","filler","noun",66,1,"noun",1,771
"194","AAM02","AAM","unique","filler","notNoun",61,0,"notNoun",1,1267
"195","AAM02","AAM","vibrant","filler","notNoun",87,0,"notNoun",1,984
"196","AAM02","AAM","warrantee","filler","noun",71,1,"noun",1,1813
"197","AAM02","AAM","weekly","filler","notNoun",64,0,"notNoun",1,1020
"198","AAM02","AAM","wrinkle","filler","noun",40,0,"notNoun",0,922
"199","AAM02","AAM","yell","filler","notNoun",63,1,"noun",0,1054
"200","AAM02","AAM","yoghurt","filler","noun",10,1,"noun",1,1172
"201","AAM03","AAM","acerbicstep12","critical","notNoun",51,0,"notNoun",1,1821
"202","AAM03","AAM","alone","filler","notNoun",81,0,"notNoun",1,1555
"203","AAM03","AAM","america","filler","noun",87,1,"noun",1,1353
"204","AAM03","AAM","anemia","filler","noun",67,1,"noun",1,1631
"205","AAM03","AAM","animal","filler","noun",29,1,"noun",1,969
"206","AAM03","AAM","annoying","filler","notNoun",79,0,"notNoun",1,1040
"207","AAM03","AAM","appear","filler","notNoun",2,0,"notNoun",1,1355
"208","AAM03","AAM","around","filler","notNoun",19,1,"noun",0,1444
"209","AAM03","AAM","avenue","filler","noun",78,1,"noun",1,1695
"210","AAM03","AAM","bakery","filler","noun",96,1,"noun",1,831
"211","AAM03","AAM","ballerina","filler","noun",43,1,"noun",1,845
"212","AAM03","AAM","basementstep11","critical","noun",18,1,"noun",1,953
"213","AAM03","AAM","beauty","filler","noun",59,0,"notNoun",0,984
"214","AAM03","AAM","become","filler","notNoun",73,0,"notNoun",1,1252
"215","AAM03","AAM","brain","filler","noun",0,1,"noun",1,1004
"216","AAM03","AAM","camera","filler","noun",26,1,"noun",1,945
"217","AAM03","AAM","casserolestep12","critical","noun",54,1,"noun",1,1179
"218","AAM03","AAM","ciderstep9","critical","noun",4,1,"noun",1,1057
"219","AAM03","AAM","degree","filler","noun",23,1,"noun",1,1311
"220","AAM03","AAM","depend","filler","notNoun",58,0,"notNoun",1,1657
"221","AAM03","AAM","develop","filler","notNoun",25,0,"notNoun",1,1169
"222","AAM03","AAM","document","filler","noun",11,1,"noun",1,1062
"223","AAM03","AAM","dragon","filler","noun",92,1,"noun",1,1323
"224","AAM03","AAM","embody","filler","notNoun",80,0,"notNoun",1,1413
"225","AAM03","AAM","energy","filler","noun",30,1,"noun",1,1520
"226","AAM03","AAM","engine","filler","noun",72,1,"noun",1,1235
"227","AAM03","AAM","enroll","filler","notNoun",22,0,"notNoun",1,1244
"228","AAM03","AAM","eternal","filler","notNoun",33,0,"notNoun",1,1200
"229","AAM03","AAM","evolve","filler","notNoun",13,0,"notNoun",1,1549
"230","AAM03","AAM","failure","filler","noun",49,1,"noun",1,1225
"231","AAM03","AAM","family","filler","noun",5,1,"noun",1,1097
"232","AAM03","AAM","felony","filler","noun",3,1,"noun",1,1788
"233","AAM03","AAM","freeze","filler","notNoun",36,0,"notNoun",1,1916
"234","AAM03","AAM","fumble","filler","notNoun",60,0,"notNoun",1,1046
"235","AAM03","AAM","garden","filler","noun",32,1,"noun",1,1444
"236","AAM03","AAM","gasolinestep11","critical","noun",82,1,"noun",1,1174
"237","AAM03","AAM","global","filler","notNoun",8,0,"notNoun",1,1406
"238","AAM03","AAM","grapple","filler","notNoun",50,0,"notNoun",1,1819
"239","AAM03","AAM","guilty","filler","notNoun",56,0,"notNoun",1,1474
"240","AAM03","AAM","gullible","filler","notNoun",93,0,"notNoun",1,902
"241","AAM03","AAM","hamburger","filler","noun",46,1,"noun",1,1046
"242","AAM03","AAM","harmful","filler","notNoun",68,0,"notNoun",1,2058
"243","AAM03","AAM","hidden","filler","notNoun",52,1,"noun",0,1755
"244","AAM03","AAM","honeymoon","filler","noun",94,1,"noun",1,1452
"245","AAM03","AAM","human","filler","noun",6,1,"noun",1,1503
"246","AAM03","AAM","ignore","filler","notNoun",75,0,"notNoun",1,1036
"247","AAM03","AAM","image","filler","noun",66,1,"noun",1,968
"248","AAM03","AAM","immoral","filler","notNoun",70,0,"notNoun",1,1547
"249","AAM03","AAM","immune","filler","notNoun",48,0,"notNoun",1,2431
"250","AAM03","AAM","ironic","filler","notNoun",44,0,"notNoun",1,1594
"251","AAM03","AAM","kidnap","filler","notNoun",12,0,"notNoun",1,1469
"252","AAM03","AAM","lawyer","filler","noun",55,1,"noun",1,1142
"253","AAM03","AAM","lunatic","filler","notNoun",90,1,"noun",0,1282
"254","AAM03","AAM","manually","filler","notNoun",77,0,"notNoun",1,1263
"255","AAM03","AAM","marina","filler","noun",63,0,"notNoun",0,1396
"256","AAM03","AAM","military","filler","noun",1,1,"noun",1,1008
"257","AAM03","AAM","mineral","filler","noun",35,1,"noun",1,1005
"258","AAM03","AAM","momentary","filler","notNoun",97,0,"notNoun",1,1519
"259","AAM03","AAM","occupy","filler","notNoun",47,0,"notNoun",1,1638
"260","AAM03","AAM","omelet","filler","noun",27,1,"noun",1,836
"261","AAM03","AAM","opaque","filler","notNoun",85,0,"notNoun",1,1409
"262","AAM03","AAM","orbital","filler","notNoun",37,1,"noun",0,1488
"263","AAM03","AAM","overcome","filler","notNoun",76,0,"notNoun",1,1427
"264","AAM03","AAM","parable","filler","noun",99,0,"notNoun",0,1248
"265","AAM03","AAM","parrot","filler","noun",31,1,"noun",1,846
"266","AAM03","AAM","pineapple","filler","noun",34,1,"noun",1,1361
"267","AAM03","AAM","recovery","filler","noun",28,1,"noun",1,2390
"268","AAM03","AAM","regular","filler","notNoun",88,0,"notNoun",1,1427
"269","AAM03","AAM","relate","filler","notNoun",17,0,"notNoun",1,1285
"270","AAM03","AAM","remedial","filler","notNoun",71,0,"notNoun",1,1317
"271","AAM03","AAM","remind","filler","notNoun",61,0,"notNoun",1,937
"272","AAM03","AAM","romantic","filler","notNoun",40,0,"notNoun",1,1295
"273","AAM03","AAM","royalty","filler","noun",7,1,"noun",1,1835
"274","AAM03","AAM","sabrestep10","critical","noun",39,0,"notNoun",0,2137
"275","AAM03","AAM","saltystep14","critical","notNoun",62,0,"notNoun",1,1325
"276","AAM03","AAM","sandalstep11","critical","noun",83,1,"noun",1,1495
"277","AAM03","AAM","seaweedstep12","critical","noun",9,1,"noun",1,1255
"278","AAM03","AAM","secludedstep10","critical","notNoun",57,0,"notNoun",1,1939
"279","AAM03","AAM","secondstep11","critical","noun",98,0,"notNoun",0,1471
"280","AAM03","AAM","severalstep9","critical","notNoun",45,0,"notNoun",1,1848
"281","AAM03","AAM","sidewalkstep8","critical","noun",38,1,"noun",1,1276
"282","AAM03","AAM","silverstep10","critical","noun",89,1,"noun",1,1139
"283","AAM03","AAM","similarstep10","critical","notNoun",69,0,"notNoun",1,1276
"284","AAM03","AAM","solidstep12","critical","notNoun",84,0,"notNoun",1,1586
"285","AAM03","AAM","submarinestep10","critical","noun",14,1,"noun",1,1083
"286","AAM03","AAM","sufferstep8","critical","notNoun",21,0,"notNoun",1,1203
"288","AAM03","AAM","surrenderstep8","critical","notNoun",53,0,"notNoun",1,1122
"289","AAM03","AAM","tobacco","filler","noun",64,1,"noun",1,1222
"290","AAM03","AAM","totally","filler","notNoun",15,0,"notNoun",1,1073
"291","AAM03","AAM","tutorial","filler","noun",41,1,"noun",1,1491
"292","AAM03","AAM","typical","filler","notNoun",42,0,"notNoun",1,1062
"293","AAM03","AAM","umbrella","filler","noun",10,1,"noun",1,1018
"294","AAM03","AAM","unique","filler","notNoun",74,0,"notNoun",1,1414
"295","AAM03","AAM","vibrant","filler","notNoun",16,0,"notNoun",1,1298
"296","AAM03","AAM","warrantee","filler","noun",65,1,"noun",1,1689
"297","AAM03","AAM","weekly","filler","notNoun",86,0,"notNoun",1,1609
"298","AAM03","AAM","wrinkle","filler","noun",24,0,"notNoun",0,1033
"299","AAM03","AAM","yell","filler","notNoun",91,1,"noun",0,1309
"300","AAM03","AAM","yoghurt","filler","noun",95,1,"noun",1,904
"301","AAM04","AAM","acerbicstep12","critical","notNoun",51,0,"notNoun",1,1159
"302","AAM04","AAM","alone","filler","notNoun",81,0,"notNoun",1,1254
"303","AAM04","AAM","america","filler","noun",87,1,"noun",1,2330
"304","AAM04","AAM","anemia","filler","noun",67,0,"notNoun",0,1324
"305","AAM04","AAM","animal","filler","noun",29,1,"noun",1,1017
"306","AAM04","AAM","annoying","filler","notNoun",79,0,"notNoun",1,1221
"307","AAM04","AAM","appear","filler","notNoun",2,0,"notNoun",1,1318
"308","AAM04","AAM","around","filler","notNoun",19,0,"notNoun",1,1761
"309","AAM04","AAM","avenue","filler","noun",78,1,"noun",1,1625
"310","AAM04","AAM","bakery","filler","noun",96,1,"noun",1,830
"311","AAM04","AAM","ballerina","filler","noun",43,1,"noun",1,873
"312","AAM04","AAM","basementstep11","critical","noun",18,1,"noun",1,1078
"313","AAM04","AAM","beauty","filler","noun",59,0,"notNoun",0,1421
"314","AAM04","AAM","become","filler","notNoun",73,0,"notNoun",1,1061
"315","AAM04","AAM","brain","filler","noun",0,1,"noun",1,867
"316","AAM04","AAM","camera","filler","noun",26,1,"noun",1,997
"317","AAM04","AAM","casserolestep12","critical","noun",54,0,"notNoun",0,865
"318","AAM04","AAM","ciderstep9","critical","noun",4,1,"noun",1,1082
"319","AAM04","AAM","degree","filler","noun",23,0,"notNoun",0,1073
"320","AAM04","AAM","depend","filler","notNoun",58,0,"notNoun",1,1285
"321","AAM04","AAM","develop","filler","notNoun",25,0,"notNoun",1,1594
"322","AAM04","AAM","document","filler","noun",11,1,"noun",1,2263
"323","AAM04","AAM","dragon","filler","noun",92,1,"noun",1,1368
"324","AAM04","AAM","embody","filler","notNoun",80,0,"notNoun",1,1739
"325","AAM04","AAM","energy","filler","noun",30,0,"notNoun",0,1909
"326","AAM04","AAM","engine","filler","noun",72,1,"noun",1,1375
"327","AAM04","AAM","enroll","filler","notNoun",22,0,"notNoun",1,1211
"328","AAM04","AAM","eternal","filler","notNoun",33,0,"notNoun",1,1033
"329","AAM04","AAM","evolve","filler","notNoun",13,0,"notNoun",1,1116
"330","AAM04","AAM","failure","filler","noun",49,0,"notNoun",0,1674
"331","AAM04","AAM","family","filler","noun",5,1,"noun",1,1854
"332","AAM04","AAM","felony","filler","noun",3,0,"notNoun",0,974
"333","AAM04","AAM","freeze","filler","notNoun",36,0,"notNoun",1,2475
"334","AAM04","AAM","fumble","filler","notNoun",60,0,"notNoun",1,1380
"335","AAM04","AAM","garden","filler","noun",32,1,"noun",1,2377
"336","AAM04","AAM","gasolinestep11","critical","noun",82,1,"noun",1,1675
"337","AAM04","AAM","global","filler","notNoun",8,0,"notNoun",1,1561
"338","AAM04","AAM","grapple","filler","notNoun",50,0,"notNoun",1,1599
"339","AAM04","AAM","guilty","filler","notNoun",56,0,"notNoun",1,1434
"340","AAM04","AAM","gullible","filler","notNoun",93,0,"notNoun",1,1101
"341","AAM04","AAM","hamburger","filler","noun",46,1,"noun",1,1026
"342","AAM04","AAM","harmful","filler","notNoun",68,0,"notNoun",1,1466
"343","AAM04","AAM","hidden","filler","notNoun",52,0,"notNoun",1,1252
"344","AAM04","AAM","honeymoon","filler","noun",94,0,"notNoun",0,1367
"345","AAM04","AAM","human","filler","noun",6,1,"noun",1,849
"346","AAM04","AAM","ignore","filler","notNoun",75,0,"notNoun",1,1005
"347","AAM04","AAM","image","filler","noun",66,1,"noun",1,1265
"348","AAM04","AAM","immoral","filler","notNoun",70,0,"notNoun",1,1268
"349","AAM04","AAM","immune","filler","notNoun",48,0,"notNoun",1,1224
"350","AAM04","AAM","ironic","filler","notNoun",44,0,"notNoun",1,1129
"351","AAM04","AAM","kidnap","filler","notNoun",12,0,"notNoun",1,1751
"352","AAM04","AAM","lawyer","filler","noun",55,1,"noun",1,896
"353","AAM04","AAM","lunatic","filler","notNoun",90,1,"noun",0,1048
"354","AAM04","AAM","manually","filler","notNoun",77,0,"notNoun",1,1791
"355","AAM04","AAM","marina","filler","noun",63,0,"notNoun",0,1617
"356","AAM04","AAM","military","filler","noun",1,0,"notNoun",0,1131
"357","AAM04","AAM","mineral","filler","noun",35,1,"noun",1,1570
"358","AAM04","AAM","momentary","filler","notNoun",97,0,"notNoun",1,1289
"359","AAM04","AAM","occupy","filler","notNoun",47,0,"notNoun",1,1037
"360","AAM04","AAM","omelet","filler","noun",27,1,"noun",1,1112
"361","AAM04","AAM","opaque","filler","notNoun",85,0,"notNoun",1,1389
"362","AAM04","AAM","orbital","filler","notNoun",37,0,"notNoun",1,1234
"363","AAM04","AAM","overcome","filler","notNoun",76,0,"notNoun",1,1292
"364","AAM04","AAM","parable","filler","noun",99,0,"notNoun",0,1344
"365","AAM04","AAM","parrot","filler","noun",31,1,"noun",1,837
"366","AAM04","AAM","pineapple","filler","noun",34,1,"noun",1,1243
"367","AAM04","AAM","recovery","filler","noun",28,0,"notNoun",0,1029
"368","AAM04","AAM","regular","filler","notNoun",88,0,"notNoun",1,1246
"369","AAM04","AAM","relate","filler","notNoun",17,0,"notNoun",1,1346
"370","AAM04","AAM","remedial","filler","notNoun",71,0,"notNoun",1,1606
"371","AAM04","AAM","remind","filler","notNoun",61,0,"notNoun",1,1419
"372","AAM04","AAM","romantic","filler","notNoun",40,0,"notNoun",1,1205
"373","AAM04","AAM","royalty","filler","noun",7,0,"notNoun",0,1866
"374","AAM04","AAM","sabrestep10","critical","noun",39,0,"notNoun",0,1201
"375","AAM04","AAM","saltystep14","critical","notNoun",62,0,"notNoun",1,1200
"376","AAM04","AAM","sandalstep11","critical","noun",83,1,"noun",1,898
"377","AAM04","AAM","seaweedstep12","critical","noun",9,0,"notNoun",0,1654
"378","AAM04","AAM","secludedstep10","critical","notNoun",57,0,"notNoun",1,1451
"379","AAM04","AAM","secondstep11","critical","noun",98,0,"notNoun",0,2205
"380","AAM04","AAM","severalstep9","critical","notNoun",45,0,"notNoun",1,1797
"381","AAM04","AAM","sidewalkstep8","critical","noun",38,1,"noun",1,1432
"382","AAM04","AAM","silverstep10","critical","noun",89,0,"notNoun",0,1121
"383","AAM04","AAM","similarstep10","critical","notNoun",69,0,"notNoun",1,1310
"384","AAM04","AAM","solidstep12","critical","notNoun",84,0,"notNoun",1,1378
"385","AAM04","AAM","submarinestep10","critical","noun",14,1,"noun",1,1173
"386","AAM04","AAM","sufferstep8","critical","notNoun",21,0,"notNoun",1,1236
"387","AAM04","AAM","superpowerstep12","critical","noun",20,0,"notNoun",0,1794
"388","AAM04","AAM","surrenderstep8","critical","notNoun",53,0,"notNoun",1,1115
"389","AAM04","AAM","tobacco","filler","noun",64,0,"notNoun",0,1482
"390","AAM04","AAM","totally","filler","notNoun",15,0,"notNoun",1,1295
"391","AAM04","AAM","tutorial","filler","noun",41,0,"notNoun",0,1182
"392","AAM04","AAM","typical","filler","notNoun",42,0,"notNoun",1,970
"393","AAM04","AAM","umbrella","filler","noun",10,0,"notNoun",0,1557
"394","AAM04","AAM","unique","filler","notNoun",74,0,"notNoun",1,1143
"395","AAM04","AAM","vibrant","filler","notNoun",16,0,"notNoun",1,1711
"396","AAM04","AAM","warrantee","filler","noun",65,0,"notNoun",0,1423
"397","AAM04","AAM","weekly","filler","notNoun",86,0,"notNoun",1,1272
"398","AAM04","AAM","wrinkle","filler","noun",24,0,"notNoun",0,1692
"399","AAM04","AAM","yell","filler","notNoun",91,0,"notNoun",1,1251
"400","AAM04","AAM","yoghurt","filler","noun",95,1,"noun",1,1773
"401","AAM05","AAM","acerbicstep12","critical","notNoun",2,0,"notNoun",1,1038
"402","AAM05","AAM","alone","filler","notNoun",37,0,"notNoun",1,873
"403","AAM05","AAM","america","filler","noun",60,1,"noun",1,943
"404","AAM05","AAM","anemia","filler","noun",82,0,"notNoun",0,741
"405","AAM05","AAM","animal","filler","noun",77,1,"noun",1,748
"406","AAM05","AAM","annoying","filler","notNoun",39,1,"noun",0,681
"407","AAM05","AAM","appear","filler","notNoun",46,0,"notNoun",1,958
"408","AAM05","AAM","around","filler","notNoun",5,1,"noun",0,990
"409","AAM05","AAM","avenue","filler","noun",45,1,"noun",1,764
"410","AAM05","AAM","bakery","filler","noun",16,1,"noun",1,1144
"411","AAM05","AAM","ballerina","filler","noun",80,1,"noun",1,815
"412","AAM05","AAM","basementstep11","critical","noun",49,1,"noun",1,827
"413","AAM05","AAM","beauty","filler","noun",97,0,"notNoun",0,1308
"414","AAM05","AAM","become","filler","notNoun",33,0,"notNoun",1,1244
"415","AAM05","AAM","brain","filler","noun",0,1,"noun",1,822
"416","AAM05","AAM","camera","filler","noun",18,1,"noun",1,1081
"417","AAM05","AAM","casserolestep12","critical","noun",54,1,"noun",1,1065
"418","AAM05","AAM","ciderstep9","critical","noun",69,1,"noun",1,951
"419","AAM05","AAM","degree","filler","noun",19,1,"noun",1,1254
"420","AAM05","AAM","depend","filler","notNoun",24,0,"notNoun",1,1308
"421","AAM05","AAM","develop","filler","notNoun",65,0,"notNoun",1,1351
"422","AAM05","AAM","document","filler","noun",90,0,"notNoun",0,1267
"423","AAM05","AAM","dragon","filler","noun",89,1,"noun",1,619
"424","AAM05","AAM","embody","filler","notNoun",25,0,"notNoun",1,899
"425","AAM05","AAM","energy","filler","noun",72,1,"noun",1,1336
"426","AAM05","AAM","engine","filler","noun",42,1,"noun",1,1098
"427","AAM05","AAM","enroll","filler","notNoun",75,0,"notNoun",1,778
"428","AAM05","AAM","eternal","filler","notNoun",68,0,"notNoun",1,956
"429","AAM05","AAM","evolve","filler","notNoun",21,0,"notNoun",1,916
"430","AAM05","AAM","failure","filler","noun",81,1,"noun",1,700
"431","AAM05","AAM","family","filler","noun",11,1,"noun",1,885
"432","AAM05","AAM","felony","filler","noun",86,0,"notNoun",0,845
"433","AAM05","AAM","freeze","filler","notNoun",9,0,"notNoun",1,1073
"434","AAM05","AAM","fumble","filler","notNoun",12,0,"notNoun",1,926
"435","AAM05","AAM","garden","filler","noun",98,1,"noun",1,1011
"436","AAM05","AAM","gasolinestep11","critical","noun",91,1,"noun",1,1250
"437","AAM05","AAM","global","filler","notNoun",62,0,"notNoun",1,1336
"438","AAM05","AAM","grapple","filler","notNoun",71,0,"notNoun",1,780
"439","AAM05","AAM","guilty","filler","notNoun",13,0,"notNoun",1,816
"440","AAM05","AAM","gullible","filler","notNoun",66,0,"notNoun",1,746
"441","AAM05","AAM","hamburger","filler","noun",78,1,"noun",1,793
"442","AAM05","AAM","harmful","filler","notNoun",99,0,"notNoun",1,2212
"443","AAM05","AAM","hidden","filler","notNoun",14,0,"notNoun",1,711
"444","AAM05","AAM","honeymoon","filler","noun",95,1,"noun",1,877
"445","AAM05","AAM","human","filler","noun",85,1,"noun",1,750
"446","AAM05","AAM","ignore","filler","notNoun",47,0,"notNoun",1,869
"447","AAM05","AAM","image","filler","noun",34,1,"noun",1,1029
"448","AAM05","AAM","immoral","filler","notNoun",67,0,"notNoun",1,749
"449","AAM05","AAM","immune","filler","notNoun",26,1,"noun",0,813
"450","AAM05","AAM","ironic","filler","notNoun",40,0,"notNoun",1,940
"451","AAM05","AAM","kidnap","filler","notNoun",52,0,"notNoun",1,1052
"452","AAM05","AAM","lawyer","filler","noun",7,1,"noun",1,929
"453","AAM05","AAM","lunatic","filler","notNoun",63,1,"noun",0,1020
"454","AAM05","AAM","manually","filler","notNoun",94,0,"notNoun",1,1051
"455","AAM05","AAM","marina","filler","noun",29,1,"noun",1,860
"456","AAM05","AAM","military","filler","noun",83,1,"noun",1,1300
"457","AAM05","AAM","mineral","filler","noun",41,1,"noun",1,760
"458","AAM05","AAM","momentary","filler","notNoun",8,0,"notNoun",1,1003
"459","AAM05","AAM","occupy","filler","notNoun",76,0,"notNoun",1,866
"460","AAM05","AAM","omelet","filler","noun",87,1,"noun",1,820
"461","AAM05","AAM","opaque","filler","notNoun",35,0,"notNoun",1,786
"462","AAM05","AAM","orbital","filler","notNoun",59,1,"noun",0,1101
"463","AAM05","AAM","overcome","filler","notNoun",3,0,"notNoun",1,1178
"464","AAM05","AAM","parable","filler","noun",30,1,"noun",1,961
"465","AAM05","AAM","parrot","filler","noun",17,1,"noun",1,797
"466","AAM05","AAM","pineapple","filler","noun",84,1,"noun",1,918
"467","AAM05","AAM","recovery","filler","noun",22,0,"notNoun",0,1332
"468","AAM05","AAM","regular","filler","notNoun",57,1,"noun",0,1016
"469","AAM05","AAM","relate","filler","notNoun",56,0,"notNoun",1,1143
"470","AAM05","AAM","remedial","filler","notNoun",55,0,"notNoun",1,728
"471","AAM05","AAM","remind","filler","notNoun",1,0,"notNoun",1,822
"472","AAM05","AAM","romantic","filler","notNoun",10,0,"notNoun",1,907
"473","AAM05","AAM","royalty","filler","noun",73,1,"noun",1,1235
"474","AAM05","AAM","sabrestep10","critical","noun",88,1,"noun",1,1146
"475","AAM05","AAM","saltystep14","critical","notNoun",15,0,"notNoun",1,876
"476","AAM05","AAM","sandalstep11","critical","noun",93,1,"noun",1,968
"477","AAM05","AAM","seaweedstep12","critical","noun",36,1,"noun",1,902
"478","AAM05","AAM","secludedstep10","critical","notNoun",51,0,"notNoun",1,990
"479","AAM05","AAM","secondstep11","critical","noun",53,0,"notNoun",0,1253
"480","AAM05","AAM","severalstep9","critical","notNoun",48,0,"notNoun",1,956
"481","AAM05","AAM","sidewalkstep8","critical","noun",38,1,"noun",1,895
"482","AAM05","AAM","silverstep10","critical","noun",64,1,"noun",1,881
"483","AAM05","AAM","similarstep10","critical","notNoun",28,1,"noun",0,825
"484","AAM05","AAM","solidstep12","critical","notNoun",20,0,"notNoun",1,1103
"485","AAM05","AAM","submarinestep10","critical","noun",61,1,"noun",1,1093
"486","AAM05","AAM","sufferstep8","critical","notNoun",74,0,"notNoun",1,1186
"487","AAM05","AAM","superpowerstep12","critical","noun",31,1,"noun",1,1087
"488","AAM05","AAM","surrenderstep8","critical","notNoun",70,1,"noun",0,984
"489","AAM05","AAM","tobacco","filler","noun",96,1,"noun",1,884
"490","AAM05","AAM","totally","filler","notNoun",79,1,"noun",0,1264
"491","AAM05","AAM","tutorial","filler","noun",43,1,"noun",1,1022
"492","AAM05","AAM","typical","filler","notNoun",27,0,"notNoun",1,1016
"493","AAM05","AAM","umbrella","filler","noun",50,1,"noun",1,864
"494","AAM05","AAM","unique","filler","notNoun",23,0,"notNoun",1,896
"495","AAM05","AAM","vibrant","filler","notNoun",92,0,"notNoun",1,1822
"496","AAM05","AAM","warrantee","filler","noun",44,1,"noun",1,961
"497","AAM05","AAM","weekly","filler","notNoun",32,1,"noun",0,1372
"498","AAM05","AAM","wrinkle","filler","noun",6,1,"noun",1,852
"499","AAM05","AAM","yell","filler","notNoun",4,0,"notNoun",1,1548
"500","AAM05","AAM","yoghurt","filler","noun",58,1,"noun",1,878
"501","AAM06","AAM","acerbicstep12","critical","notNoun",24,0,"notNoun",1,1278
"502","AAM06","AAM","alone","filler","notNoun",85,0,"notNoun",1,2151
"503","AAM06","AAM","america","filler","noun",94,1,"noun",1,1623
"504","AAM06","AAM","anemia","filler","noun",70,1,"noun",1,1035
"505","AAM06","AAM","animal","filler","noun",29,1,"noun",1,756
"506","AAM06","AAM","annoying","filler","notNoun",31,0,"notNoun",1,831
"507","AAM06","AAM","appear","filler","notNoun",71,0,"notNoun",1,1085
"508","AAM06","AAM","around","filler","notNoun",39,0,"notNoun",1,1158
"509","AAM06","AAM","avenue","filler","noun",99,1,"noun",1,1061
"510","AAM06","AAM","bakery","filler","noun",59,1,"noun",1,888
"511","AAM06","AAM","ballerina","filler","noun",28,1,"noun",1,2217
"512","AAM06","AAM","basementstep11","critical","noun",20,1,"noun",1,1126
"513","AAM06","AAM","beauty","filler","noun",82,1,"noun",1,925
"514","AAM06","AAM","become","filler","notNoun",75,0,"notNoun",1,1114
"515","AAM06","AAM","brain","filler","noun",88,1,"noun",1,834
"516","AAM06","AAM","camera","filler","noun",81,1,"noun",1,1406
"517","AAM06","AAM","casserolestep12","critical","noun",72,1,"noun",1,1221
"518","AAM06","AAM","ciderstep9","critical","noun",89,1,"noun",1,1545
"519","AAM06","AAM","degree","filler","noun",27,1,"noun",1,927
"520","AAM06","AAM","depend","filler","notNoun",18,0,"notNoun",1,1403
"521","AAM06","AAM","develop","filler","notNoun",58,1,"noun",0,1188
"522","AAM06","AAM","document","filler","noun",21,1,"noun",1,1658
"523","AAM06","AAM","dragon","filler","noun",38,1,"noun",1,869
"524","AAM06","AAM","embody","filler","notNoun",36,0,"notNoun",1,1902
"525","AAM06","AAM","energy","filler","noun",93,1,"noun",1,1568
"526","AAM06","AAM","engine","filler","noun",62,1,"noun",1,1214
"527","AAM06","AAM","enroll","filler","notNoun",41,0,"notNoun",1,1344
"528","AAM06","AAM","eternal","filler","notNoun",32,0,"notNoun",1,1242
"529","AAM06","AAM","evolve","filler","notNoun",1,0,"notNoun",1,815
"530","AAM06","AAM","failure","filler","noun",11,1,"noun",1,1101
"531","AAM06","AAM","family","filler","noun",65,1,"noun",1,899
"532","AAM06","AAM","felony","filler","noun",90,1,"noun",1,1316
"533","AAM06","AAM","freeze","filler","notNoun",40,1,"noun",0,1086
"534","AAM06","AAM","fumble","filler","notNoun",57,0,"notNoun",1,1048
"535","AAM06","AAM","garden","filler","noun",51,1,"noun",1,1727
"536","AAM06","AAM","gasolinestep11","critical","noun",8,1,"noun",1,1086
"537","AAM06","AAM","global","filler","notNoun",48,0,"notNoun",1,1021
"538","AAM06","AAM","grapple","filler","notNoun",23,1,"noun",0,1489
"539","AAM06","AAM","guilty","filler","notNoun",19,0,"notNoun",1,1684
"540","AAM06","AAM","gullible","filler","notNoun",15,0,"notNoun",1,1436
"541","AAM06","AAM","hamburger","filler","noun",56,1,"noun",1,1053
"542","AAM06","AAM","harmful","filler","notNoun",98,0,"notNoun",1,1315
"543","AAM06","AAM","hidden","filler","notNoun",42,0,"notNoun",1,1052
"544","AAM06","AAM","honeymoon","filler","noun",14,1,"noun",1,1075
"545","AAM06","AAM","human","filler","noun",76,1,"noun",1,1027
"546","AAM06","AAM","ignore","filler","notNoun",44,0,"notNoun",1,1149
"547","AAM06","AAM","image","filler","noun",69,1,"noun",1,755
"548","AAM06","AAM","immoral","filler","notNoun",50,0,"notNoun",1,1046
"549","AAM06","AAM","immune","filler","notNoun",86,0,"notNoun",1,1253
"550","AAM06","AAM","ironic","filler","notNoun",43,0,"notNoun",1,1173
"551","AAM06","AAM","kidnap","filler","notNoun",17,0,"notNoun",1,1429
"552","AAM06","AAM","lawyer","filler","noun",60,1,"noun",1,874
"553","AAM06","AAM","lunatic","filler","notNoun",52,1,"noun",0,933
"554","AAM06","AAM","manually","filler","notNoun",25,0,"notNoun",1,1421
"555","AAM06","AAM","marina","filler","noun",96,1,"noun",1,988
"556","AAM06","AAM","military","filler","noun",87,1,"noun",1,1363
"557","AAM06","AAM","mineral","filler","noun",95,1,"noun",1,1676
"558","AAM06","AAM","momentary","filler","notNoun",78,0,"notNoun",1,981
"559","AAM06","AAM","occupy","filler","notNoun",47,0,"notNoun",1,1611
"560","AAM06","AAM","omelet","filler","noun",79,1,"noun",1,965
"561","AAM06","AAM","opaque","filler","notNoun",10,0,"notNoun",1,1839
"562","AAM06","AAM","orbital","filler","notNoun",61,1,"noun",0,1394
"563","AAM06","AAM","overcome","filler","notNoun",16,0,"notNoun",1,1317
"564","AAM06","AAM","parable","filler","noun",91,1,"noun",1,1198
"565","AAM06","AAM","parrot","filler","noun",30,1,"noun",1,973
"566","AAM06","AAM","pineapple","filler","noun",77,1,"noun",1,967
"567","AAM06","AAM","recovery","filler","noun",54,1,"noun",1,1172
"568","AAM06","AAM","regular","filler","notNoun",66,0,"notNoun",1,1225
"569","AAM06","AAM","relate","filler","notNoun",9,0,"notNoun",1,1133
"570","AAM06","AAM","remedial","filler","notNoun",26,0,"notNoun",1,1308
"571","AAM06","AAM","remind","filler","notNoun",97,1,"noun",0,1022
"572","AAM06","AAM","romantic","filler","notNoun",80,0,"notNoun",1,1108
"573","AAM06","AAM","royalty","filler","noun",45,1,"noun",1,1782
"574","AAM06","AAM","sabrestep10","critical","noun",83,1,"noun",1,1063
"575","AAM06","AAM","saltystep14","critical","notNoun",63,0,"notNoun",1,1283
"576","AAM06","AAM","sandalstep11","critical","noun",13,1,"noun",1,1276
"577","AAM06","AAM","seaweedstep12","critical","noun",12,1,"noun",1,1372
"578","AAM06","AAM","secludedstep10","critical","notNoun",7,0,"notNoun",1,1222
"579","AAM06","AAM","secondstep11","critical","noun",55,0,"notNoun",0,1691
"580","AAM06","AAM","severalstep9","critical","notNoun",35,0,"notNoun",1,1381
"581","AAM06","AAM","sidewalkstep8","critical","noun",22,1,"noun",1,1384
"582","AAM06","AAM","silverstep10","critical","noun",34,0,"notNoun",0,1063
"583","AAM06","AAM","similarstep10","critical","notNoun",46,0,"notNoun",1,1314
"584","AAM06","AAM","solidstep12","critical","notNoun",3,1,"noun",0,1090
"585","AAM06","AAM","submarinestep10","critical","noun",64,1,"noun",1,972
"586","AAM06","AAM","sufferstep8","critical","notNoun",74,0,"notNoun",1,2376
"587","AAM06","AAM","superpowerstep12","critical","noun",68,1,"noun",1,1314
"588","AAM06","AAM","surrenderstep8","critical","notNoun",2,0,"notNoun",1,1466
"589","AAM06","AAM","tobacco","filler","noun",92,1,"noun",1,1293
"590","AAM06","AAM","totally","filler","notNoun",84,0,"notNoun",1,1575
"591","AAM06","AAM","tutorial","filler","noun",53,1,"noun",1,1055
"592","AAM06","AAM","typical","filler","notNoun",67,0,"notNoun",1,2110
"593","AAM06","AAM","umbrella","filler","noun",6,1,"noun",1,1083
"594","AAM06","AAM","unique","filler","notNoun",49,0,"notNoun",1,874
"595","AAM06","AAM","vibrant","filler","notNoun",0,0,"notNoun",1,1535
"596","AAM06","AAM","warrantee","filler","noun",33,1,"noun",1,1423
"597","AAM06","AAM","weekly","filler","notNoun",73,1,"noun",0,1782
"598","AAM06","AAM","wrinkle","filler","noun",37,1,"noun",1,1345
"599","AAM06","AAM","yell","filler","notNoun",5,1,"noun",0,1005
"600","AAM06","AAM","yoghurt","filler","noun",4,1,"noun",1,1213
"801","AAM09","AAM","acerbicstep12","critical","notNoun",27,1,"noun",0,2246
"802","AAM09","AAM","alone","filler","notNoun",63,0,"notNoun",1,1419
"803","AAM09","AAM","america","filler","noun",23,1,"noun",1,3059
"804","AAM09","AAM","anemia","filler","noun",77,1,"noun",1,2652
"805","AAM09","AAM","animal","filler","noun",52,1,"noun",1,1824
"806","AAM09","AAM","annoying","filler","notNoun",5,0,"notNoun",1,2383
"807","AAM09","AAM","appear","filler","notNoun",17,0,"notNoun",1,1429
"808","AAM09","AAM","around","filler","notNoun",4,0,"notNoun",1,1727
"809","AAM09","AAM","avenue","filler","noun",20,1,"noun",1,3232
"810","AAM09","AAM","bakery","filler","noun",68,1,"noun",1,1056
"811","AAM09","AAM","ballerina","filler","noun",26,1,"noun",1,1029
"812","AAM09","AAM","basementstep11","critical","noun",2,1,"noun",1,1257
"813","AAM09","AAM","beauty","filler","noun",11,1,"noun",1,1365
"814","AAM09","AAM","become","filler","notNoun",8,0,"notNoun",1,1242
"815","AAM09","AAM","brain","filler","noun",99,1,"noun",1,2484
"816","AAM09","AAM","camera","filler","noun",35,1,"noun",1,1417
"817","AAM09","AAM","casserolestep12","critical","noun",14,0,"notNoun",0,4590
"818","AAM09","AAM","ciderstep9","critical","noun",37,1,"noun",1,2079
"819","AAM09","AAM","degree","filler","noun",96,0,"notNoun",0,2098
"820","AAM09","AAM","depend","filler","notNoun",88,0,"notNoun",1,1380
"821","AAM09","AAM","develop","filler","notNoun",95,1,"noun",0,3007
"822","AAM09","AAM","document","filler","noun",78,0,"notNoun",0,4013
"823","AAM09","AAM","dragon","filler","noun",76,1,"noun",1,1274
"824","AAM09","AAM","embody","filler","notNoun",92,0,"notNoun",1,1850
"825","AAM09","AAM","energy","filler","noun",61,0,"notNoun",0,1040
"826","AAM09","AAM","engine","filler","noun",75,1,"noun",1,1174
"827","AAM09","AAM","enroll","filler","notNoun",10,0,"notNoun",1,1082
"828","AAM09","AAM","eternal","filler","notNoun",69,0,"notNoun",1,1384
"829","AAM09","AAM","evolve","filler","notNoun",32,0,"notNoun",1,1455
"830","AAM09","AAM","failure","filler","noun",60,1,"noun",1,4719
"831","AAM09","AAM","family","filler","noun",91,1,"noun",1,1764
"832","AAM09","AAM","felony","filler","noun",93,0,"notNoun",0,2635
"833","AAM09","AAM","freeze","filler","notNoun",30,1,"noun",0,3594
"834","AAM09","AAM","fumble","filler","notNoun",34,0,"notNoun",1,1163
"835","AAM09","AAM","garden","filler","noun",56,1,"noun",1,1315
"836","AAM09","AAM","gasolinestep11","critical","noun",79,1,"noun",1,1850
"837","AAM09","AAM","global","filler","notNoun",43,0,"notNoun",1,1532
"838","AAM09","AAM","grapple","filler","notNoun",19,0,"notNoun",1,1541
"839","AAM09","AAM","guilty","filler","notNoun",28,0,"notNoun",1,1030
"840","AAM09","AAM","gullible","filler","notNoun",15,0,"notNoun",1,4706
"841","AAM09","AAM","hamburger","filler","noun",50,1,"noun",1,1037
"843","AAM09","AAM","hidden","filler","notNoun",81,0,"notNoun",1,1407
"844","AAM09","AAM","honeymoon","filler","noun",33,1,"noun",1,1869
"845","AAM09","AAM","human","filler","noun",12,1,"noun",1,1136
"846","AAM09","AAM","ignore","filler","notNoun",90,0,"notNoun",1,989
"847","AAM09","AAM","image","filler","noun",38,1,"noun",1,1349
"848","AAM09","AAM","immoral","filler","notNoun",65,1,"noun",0,2227
"849","AAM09","AAM","immune","filler","notNoun",22,0,"notNoun",1,1328
"850","AAM09","AAM","ironic","filler","notNoun",45,0,"notNoun",1,910
"851","AAM09","AAM","kidnap","filler","notNoun",16,1,"noun",0,1787
"852","AAM09","AAM","lawyer","filler","noun",18,1,"noun",1,1160
"853","AAM09","AAM","lunatic","filler","notNoun",57,0,"notNoun",1,1371
"854","AAM09","AAM","manually","filler","notNoun",36,0,"notNoun",1,1277
"855","AAM09","AAM","marina","filler","noun",6,1,"noun",1,2310
"856","AAM09","AAM","military","filler","noun",1,1,"noun",1,1367
"857","AAM09","AAM","mineral","filler","noun",13,1,"noun",1,1856
"858","AAM09","AAM","momentary","filler","notNoun",84,0,"notNoun",1,1449
"859","AAM09","AAM","occupy","filler","notNoun",67,1,"noun",0,3811
"860","AAM09","AAM","omelet","filler","noun",44,1,"noun",1,966
"861","AAM09","AAM","opaque","filler","notNoun",47,0,"notNoun",1,1427
"862","AAM09","AAM","orbital","filler","notNoun",39,1,"noun",0,2764
"863","AAM09","AAM","overcome","filler","notNoun",3,0,"notNoun",1,1151
"864","AAM09","AAM","parable","filler","noun",29,0,"notNoun",0,1270
"865","AAM09","AAM","parrot","filler","noun",41,1,"noun",1,940
"866","AAM09","AAM","pineapple","filler","noun",85,1,"noun",1,1326
"867","AAM09","AAM","recovery","filler","noun",21,0,"notNoun",0,1139
"868","AAM09","AAM","regular","filler","notNoun",64,0,"notNoun",1,1216
"869","AAM09","AAM","relate","filler","notNoun",31,0,"notNoun",1,1787
"870","AAM09","AAM","remedial","filler","notNoun",73,0,"notNoun",1,2377
"871","AAM09","AAM","remind","filler","notNoun",53,0,"notNoun",1,1530
"872","AAM09","AAM","romantic","filler","notNoun",40,0,"notNoun",1,3044
"873","AAM09","AAM","royalty","filler","noun",9,0,"notNoun",0,2767
"874","AAM09","AAM","sabrestep10","critical","noun",55,0,"notNoun",0,1669
"875","AAM09","AAM","saltystep14","critical","notNoun",86,0,"notNoun",1,1797
"876","AAM09","AAM","sandalstep11","critical","noun",46,1,"noun",1,1383
"877","AAM09","AAM","seaweedstep12","critical","noun",25,1,"noun",1,1203
"878","AAM09","AAM","secludedstep10","critical","notNoun",72,0,"notNoun",1,1438
"879","AAM09","AAM","secondstep11","critical","noun",48,0,"notNoun",0,1920
"880","AAM09","AAM","severalstep9","critical","notNoun",71,0,"notNoun",1,1292
"881","AAM09","AAM","sidewalkstep8","critical","noun",24,0,"notNoun",0,3532
"882","AAM09","AAM","silverstep10","critical","noun",70,1,"noun",1,1225
"883","AAM09","AAM","similarstep10","critical","notNoun",51,0,"notNoun",1,2173
"884","AAM09","AAM","solidstep12","critical","notNoun",0,1,"noun",0,2214
"885","AAM09","AAM","submarinestep10","critical","noun",54,1,"noun",1,1286
"886","AAM09","AAM","sufferstep8","critical","notNoun",49,0,"notNoun",1,1353
"887","AAM09","AAM","superpowerstep12","critical","noun",87,0,"notNoun",0,3023
"888","AAM09","AAM","surrenderstep8","critical","notNoun",62,0,"notNoun",1,1600
"889","AAM09","AAM","tobacco","filler","noun",82,1,"noun",1,1112
"890","AAM09","AAM","totally","filler","notNoun",74,0,"notNoun",1,2061
"891","AAM09","AAM","tutorial","filler","noun",66,0,"notNoun",0,1733
"892","AAM09","AAM","typical","filler","notNoun",58,0,"notNoun",1,1398
"893","AAM09","AAM","umbrella","filler","noun",59,1,"noun",1,956
"894","AAM09","AAM","unique","filler","notNoun",80,0,"notNoun",1,1370
"895","AAM09","AAM","vibrant","filler","notNoun",83,0,"notNoun",1,1946
"896","AAM09","AAM","warrantee","filler","noun",89,0,"notNoun",0,960
"897","AAM09","AAM","weekly","filler","notNoun",94,0,"notNoun",1,1766
"898","AAM09","AAM","wrinkle","filler","noun",97,0,"notNoun",0,2184
"899","AAM09","AAM","yell","filler","notNoun",7,0,"notNoun",1,2043
"900","AAM09","AAM","yoghurt","filler","noun",42,1,"noun",1,1566
"901","AAM10","AAM","acerbicstep12","critical","notNoun",25,0,"notNoun",1,2015
"902","AAM10","AAM","alone","filler","notNoun",3,0,"notNoun",1,919
"903","AAM10","AAM","america","filler","noun",18,1,"noun",1,1423
"904","AAM10","AAM","anemia","filler","noun",29,1,"noun",1,1686
"905","AAM10","AAM","animal","filler","noun",54,1,"noun",1,694
"906","AAM10","AAM","annoying","filler","notNoun",27,0,"notNoun",1,1087
"907","AAM10","AAM","appear","filler","notNoun",6,0,"notNoun",1,1013
"908","AAM10","AAM","around","filler","notNoun",37,0,"notNoun",1,1372
"909","AAM10","AAM","avenue","filler","noun",5,1,"noun",1,894
"910","AAM10","AAM","bakery","filler","noun",61,1,"noun",1,1129
"911","AAM10","AAM","ballerina","filler","noun",63,1,"noun",1,992
"912","AAM10","AAM","basementstep11","critical","noun",10,1,"noun",1,1076
"913","AAM10","AAM","beauty","filler","noun",48,1,"noun",1,1326
"914","AAM10","AAM","become","filler","notNoun",72,0,"notNoun",1,1300
"915","AAM10","AAM","brain","filler","noun",88,1,"noun",1,1047
"916","AAM10","AAM","camera","filler","noun",46,1,"noun",1,887
"917","AAM10","AAM","casserolestep12","critical","noun",76,1,"noun",1,1555
"918","AAM10","AAM","ciderstep9","critical","noun",62,1,"noun",1,1446
"919","AAM10","AAM","degree","filler","noun",42,0,"notNoun",0,843
"920","AAM10","AAM","depend","filler","notNoun",49,0,"notNoun",1,1327
"921","AAM10","AAM","develop","filler","notNoun",35,0,"notNoun",1,1728
"922","AAM10","AAM","document","filler","noun",36,1,"noun",1,2833
"923","AAM10","AAM","dragon","filler","noun",24,1,"noun",1,1370
"924","AAM10","AAM","embody","filler","notNoun",89,0,"notNoun",1,2245
"925","AAM10","AAM","energy","filler","noun",84,0,"notNoun",0,1053
"926","AAM10","AAM","engine","filler","noun",52,1,"noun",1,1275
"927","AAM10","AAM","enroll","filler","notNoun",57,0,"notNoun",1,1930
"928","AAM10","AAM","eternal","filler","notNoun",74,0,"notNoun",1,1964
"929","AAM10","AAM","evolve","filler","notNoun",16,0,"notNoun",1,1215
"930","AAM10","AAM","failure","filler","noun",19,0,"notNoun",0,1485
"931","AAM10","AAM","family","filler","noun",91,1,"noun",1,1028
"932","AAM10","AAM","felony","filler","noun",86,0,"notNoun",0,2086
"933","AAM10","AAM","freeze","filler","notNoun",12,0,"notNoun",1,1743
"934","AAM10","AAM","fumble","filler","notNoun",53,0,"notNoun",1,1442
"935","AAM10","AAM","garden","filler","noun",96,1,"noun",1,983
"936","AAM10","AAM","gasolinestep11","critical","noun",99,1,"noun",1,1031
"937","AAM10","AAM","global","filler","notNoun",66,0,"notNoun",1,996
"938","AAM10","AAM","grapple","filler","notNoun",34,0,"notNoun",1,1244
"939","AAM10","AAM","guilty","filler","notNoun",78,0,"notNoun",1,1307
"940","AAM10","AAM","gullible","filler","notNoun",90,0,"notNoun",1,959
"941","AAM10","AAM","hamburger","filler","noun",65,1,"noun",1,1002
"942","AAM10","AAM","harmful","filler","notNoun",8,0,"notNoun",1,1212
"943","AAM10","AAM","hidden","filler","notNoun",0,0,"notNoun",1,988
"944","AAM10","AAM","honeymoon","filler","noun",51,0,"notNoun",0,1291
"945","AAM10","AAM","human","filler","noun",60,1,"noun",1,857
"946","AAM10","AAM","ignore","filler","notNoun",47,0,"notNoun",1,1628
"947","AAM10","AAM","image","filler","noun",45,1,"noun",1,976
"948","AAM10","AAM","immoral","filler","notNoun",95,0,"notNoun",1,2563
"949","AAM10","AAM","immune","filler","notNoun",70,0,"notNoun",1,1594
"950","AAM10","AAM","ironic","filler","notNoun",85,0,"notNoun",1,971
"951","AAM10","AAM","kidnap","filler","notNoun",83,0,"notNoun",1,1651
"952","AAM10","AAM","lawyer","filler","noun",1,1,"noun",1,976
"953","AAM10","AAM","lunatic","filler","notNoun",87,1,"noun",0,1105
"954","AAM10","AAM","manually","filler","notNoun",21,0,"notNoun",1,1360
"955","AAM10","AAM","marina","filler","noun",98,1,"noun",1,1607
"956","AAM10","AAM","military","filler","noun",38,1,"noun",1,933
"957","AAM10","AAM","mineral","filler","noun",64,1,"noun",1,1170
"958","AAM10","AAM","momentary","filler","notNoun",44,0,"notNoun",1,1087
"959","AAM10","AAM","occupy","filler","notNoun",79,0,"notNoun",1,2321
"960","AAM10","AAM","omelet","filler","noun",30,1,"noun",1,1049
"961","AAM10","AAM","opaque","filler","notNoun",11,1,"noun",0,1083
"962","AAM10","AAM","orbital","filler","notNoun",58,0,"notNoun",1,987
"963","AAM10","AAM","overcome","filler","notNoun",97,0,"notNoun",1,1198
"964","AAM10","AAM","parable","filler","noun",68,1,"noun",1,1261
"965","AAM10","AAM","parrot","filler","noun",39,1,"noun",1,854
"966","AAM10","AAM","pineapple","filler","noun",32,1,"noun",1,927
"967","AAM10","AAM","recovery","filler","noun",31,0,"notNoun",0,1480
"968","AAM10","AAM","regular","filler","notNoun",23,0,"notNoun",1,1030
"969","AAM10","AAM","relate","filler","notNoun",93,0,"notNoun",1,1122
"970","AAM10","AAM","remedial","filler","notNoun",28,0,"notNoun",1,961
"971","AAM10","AAM","remind","filler","notNoun",7,0,"notNoun",1,1882
"972","AAM10","AAM","romantic","filler","notNoun",43,0,"notNoun",1,1588
"973","AAM10","AAM","royalty","filler","noun",94,1,"noun",1,1112
"974","AAM10","AAM","sabrestep10","critical","noun",17,0,"notNoun",0,1677
"975","AAM10","AAM","saltystep14","critical","notNoun",26,0,"notNoun",1,935
"976","AAM10","AAM","sandalstep11","critical","noun",13,1,"noun",1,1285
"977","AAM10","AAM","seaweedstep12","critical","noun",82,1,"noun",1,1127
"978","AAM10","AAM","secludedstep10","critical","notNoun",9,0,"notNoun",1,1495
"979","AAM10","AAM","secondstep11","critical","noun",75,0,"notNoun",0,1829
"980","AAM10","AAM","severalstep9","critical","notNoun",71,0,"notNoun",1,1277
"981","AAM10","AAM","sidewalkstep8","critical","noun",73,1,"noun",1,1173
"982","AAM10","AAM","silverstep10","critical","noun",55,0,"notNoun",0,2234
"983","AAM10","AAM","similarstep10","critical","notNoun",22,0,"notNoun",1,1876
"984","AAM10","AAM","solidstep12","critical","notNoun",40,0,"notNoun",1,2341
"985","AAM10","AAM","submarinestep10","critical","noun",20,1,"noun",1,1047
"986","AAM10","AAM","sufferstep8","critical","notNoun",14,0,"notNoun",1,1394
"987","AAM10","AAM","superpowerstep12","critical","noun",81,1,"noun",1,1360
"988","AAM10","AAM","surrenderstep8","critical","notNoun",92,0,"notNoun",1,1484
"989","AAM10","AAM","tobacco","filler","noun",2,1,"noun",1,924
"990","AAM10","AAM","totally","filler","notNoun",4,0,"notNoun",1,1070
"991","AAM10","AAM","tutorial","filler","noun",15,1,"noun",1,1540
"992","AAM10","AAM","typical","filler","notNoun",77,0,"notNoun",1,1906
"993","AAM10","AAM","umbrella","filler","noun",67,1,"noun",1,1018
"994","AAM10","AAM","unique","filler","notNoun",80,0,"notNoun",1,1172
"995","AAM10","AAM","vibrant","filler","notNoun",59,1,"noun",0,1836
"996","AAM10","AAM","warrantee","filler","noun",50,1,"noun",1,4012
"997","AAM10","AAM","weekly","filler","notNoun",41,0,"notNoun",1,1292
"998","AAM10","AAM","wrinkle","filler","noun",56,0,"notNoun",0,1431
"999","AAM10","AAM","yell","filler","notNoun",33,0,"notNoun",1,1509
"1000","AAM10","AAM","yoghurt","filler","noun",69,1,"noun",1,1537
"1001","AAM11","AAM","acerbicstep12","critical","notNoun",25,0,"notNoun",1,1310
"1002","AAM11","AAM","alone","filler","notNoun",3,0,"notNoun",1,1947
"1003","AAM11","AAM","america","filler","noun",18,1,"noun",1,897
"1004","AAM11","AAM","anemia","filler","noun",29,0,"notNoun",0,2172
"1005","AAM11","AAM","animal","filler","noun",54,1,"noun",1,743
"1006","AAM11","AAM","annoying","filler","notNoun",27,0,"notNoun",1,1283
"1007","AAM11","AAM","appear","filler","notNoun",6,0,"notNoun",1,1671
"1008","AAM11","AAM","around","filler","notNoun",37,0,"notNoun",1,1429
"1009","AAM11","AAM","avenue","filler","noun",5,1,"noun",1,1417
"1010","AAM11","AAM","bakery","filler","noun",61,1,"noun",1,1246
"1011","AAM11","AAM","ballerina","filler","noun",63,1,"noun",1,987
"1012","AAM11","AAM","basementstep11","critical","noun",10,1,"noun",1,937
"1013","AAM11","AAM","beauty","filler","noun",48,0,"notNoun",0,1329
"1014","AAM11","AAM","become","filler","notNoun",72,0,"notNoun",1,1282
"1015","AAM11","AAM","brain","filler","noun",88,1,"noun",1,805
"1016","AAM11","AAM","camera","filler","noun",46,1,"noun",1,965
"1017","AAM11","AAM","casserolestep12","critical","noun",76,1,"noun",1,972
"1018","AAM11","AAM","ciderstep9","critical","noun",62,1,"noun",1,1444
"1019","AAM11","AAM","degree","filler","noun",42,1,"noun",1,1942
"1020","AAM11","AAM","depend","filler","notNoun",49,0,"notNoun",1,1028
"1021","AAM11","AAM","develop","filler","notNoun",35,0,"notNoun",1,1989
"1022","AAM11","AAM","document","filler","noun",36,1,"noun",1,2744
"1023","AAM11","AAM","dragon","filler","noun",24,1,"noun",1,1282
"1024","AAM11","AAM","embody","filler","notNoun",89,0,"notNoun",1,1572
"1025","AAM11","AAM","energy","filler","noun",84,0,"notNoun",0,873
"1026","AAM11","AAM","engine","filler","noun",52,1,"noun",1,1297
"1027","AAM11","AAM","enroll","filler","notNoun",57,0,"notNoun",1,1577
"1028","AAM11","AAM","eternal","filler","notNoun",74,0,"notNoun",1,1101
"1029","AAM11","AAM","evolve","filler","notNoun",16,0,"notNoun",1,1412
"1030","AAM11","AAM","failure","filler","noun",19,0,"notNoun",0,1154
"1031","AAM11","AAM","family","filler","noun",91,1,"noun",1,1445
"1032","AAM11","AAM","felony","filler","noun",86,1,"noun",1,1822
"1033","AAM11","AAM","freeze","filler","notNoun",12,0,"notNoun",1,1506
"1034","AAM11","AAM","fumble","filler","notNoun",53,1,"noun",0,1110
"1035","AAM11","AAM","garden","filler","noun",96,1,"noun",1,896
"1036","AAM11","AAM","gasolinestep11","critical","noun",99,1,"noun",1,1026
"1037","AAM11","AAM","global","filler","notNoun",66,1,"noun",0,1152
"1038","AAM11","AAM","grapple","filler","notNoun",34,1,"noun",0,1675
"1039","AAM11","AAM","guilty","filler","notNoun",78,1,"noun",0,1792
"1040","AAM11","AAM","gullible","filler","notNoun",90,0,"notNoun",1,1526
"1041","AAM11","AAM","hamburger","filler","noun",65,1,"noun",1,1132
"1042","AAM11","AAM","harmful","filler","notNoun",8,0,"notNoun",1,1094
"1043","AAM11","AAM","hidden","filler","notNoun",0,0,"notNoun",1,977
"1044","AAM11","AAM","honeymoon","filler","noun",51,1,"noun",1,1100
"1045","AAM11","AAM","human","filler","noun",60,1,"noun",1,910
"1046","AAM11","AAM","ignore","filler","notNoun",47,0,"notNoun",1,1189
"1047","AAM11","AAM","image","filler","noun",45,1,"noun",1,1171
"1048","AAM11","AAM","immoral","filler","notNoun",95,0,"notNoun",1,1013
"1049","AAM11","AAM","immune","filler","notNoun",70,0,"notNoun",1,1189
"1050","AAM11","AAM","ironic","filler","notNoun",85,0,"notNoun",1,1606
"1051","AAM11","AAM","kidnap","filler","notNoun",83,0,"notNoun",1,2841
"1052","AAM11","AAM","lawyer","filler","noun",1,1,"noun",1,806
"1053","AAM11","AAM","lunatic","filler","notNoun",87,1,"noun",0,1879
"1054","AAM11","AAM","manually","filler","notNoun",21,1,"noun",0,1939
"1055","AAM11","AAM","marina","filler","noun",98,1,"noun",1,1472
"1056","AAM11","AAM","military","filler","noun",38,1,"noun",1,1096
"1057","AAM11","AAM","mineral","filler","noun",64,1,"noun",1,1697
"1058","AAM11","AAM","momentary","filler","notNoun",44,0,"notNoun",1,1217
"1059","AAM11","AAM","occupy","filler","notNoun",79,0,"notNoun",1,1247
"1060","AAM11","AAM","omelet","filler","noun",30,1,"noun",1,922
"1061","AAM11","AAM","opaque","filler","notNoun",11,0,"notNoun",1,1020
"1062","AAM11","AAM","orbital","filler","notNoun",58,0,"notNoun",1,1747
"1063","AAM11","AAM","overcome","filler","notNoun",97,0,"notNoun",1,1244
"1064","AAM11","AAM","parable","filler","noun",68,0,"notNoun",0,1020
"1065","AAM11","AAM","parrot","filler","noun",39,1,"noun",1,843
"1066","AAM11","AAM","pineapple","filler","noun",32,1,"noun",1,1309
"1067","AAM11","AAM","recovery","filler","noun",31,0,"notNoun",0,1276
"1068","AAM11","AAM","regular","filler","notNoun",23,0,"notNoun",1,1062
"1069","AAM11","AAM","relate","filler","notNoun",93,0,"notNoun",1,1153
"1070","AAM11","AAM","remedial","filler","notNoun",28,0,"notNoun",1,1123
"1071","AAM11","AAM","remind","filler","notNoun",7,0,"notNoun",1,1303
"1072","AAM11","AAM","romantic","filler","notNoun",43,0,"notNoun",1,1280
"1073","AAM11","AAM","royalty","filler","noun",94,0,"notNoun",0,1654
"1074","AAM11","AAM","sabrestep10","critical","noun",17,1,"noun",1,1589
"1075","AAM11","AAM","saltystep14","critical","notNoun",26,0,"notNoun",1,1450
"1076","AAM11","AAM","sandalstep11","critical","noun",13,1,"noun",1,1138
"1077","AAM11","AAM","seaweedstep12","critical","noun",82,1,"noun",1,2704
"1078","AAM11","AAM","secludedstep10","critical","notNoun",9,0,"notNoun",1,1107
"1079","AAM11","AAM","secondstep11","critical","noun",75,1,"noun",1,1862
"1080","AAM11","AAM","severalstep9","critical","notNoun",71,0,"notNoun",1,1606
"1081","AAM11","AAM","sidewalkstep8","critical","noun",73,1,"noun",1,1759
"1082","AAM11","AAM","silverstep10","critical","noun",55,0,"notNoun",0,1203
"1083","AAM11","AAM","similarstep10","critical","notNoun",22,0,"notNoun",1,1468
"1084","AAM11","AAM","solidstep12","critical","notNoun",40,0,"notNoun",1,1903
"1085","AAM11","AAM","submarinestep10","critical","noun",20,1,"noun",1,1303
"1086","AAM11","AAM","sufferstep8","critical","notNoun",14,0,"notNoun",1,1828
"1087","AAM11","AAM","superpowerstep12","critical","noun",81,0,"notNoun",0,2682
"1088","AAM11","AAM","surrenderstep8","critical","notNoun",92,0,"notNoun",1,2247
"1089","AAM11","AAM","tobacco","filler","noun",2,1,"noun",1,898
"1090","AAM11","AAM","totally","filler","notNoun",4,0,"notNoun",1,1644
"1091","AAM11","AAM","tutorial","filler","noun",15,1,"noun",1,1333
"1092","AAM11","AAM","typical","filler","notNoun",77,0,"notNoun",1,2608
"1093","AAM11","AAM","umbrella","filler","noun",67,1,"noun",1,986
"1094","AAM11","AAM","unique","filler","notNoun",80,0,"notNoun",1,951
"1095","AAM11","AAM","vibrant","filler","notNoun",59,0,"notNoun",1,1191
"1096","AAM11","AAM","warrantee","filler","noun",50,1,"noun",1,1185
"1097","AAM11","AAM","weekly","filler","notNoun",41,0,"notNoun",1,4644
"1098","AAM11","AAM","wrinkle","filler","noun",56,1,"noun",1,1190
"1099","AAM11","AAM","yell","filler","notNoun",33,1,"noun",0,975
"1100","AAM11","AAM","yoghurt","filler","noun",69,1,"noun",1,1778
"1101","AAM12","AAM","acerbicstep12","critical","notNoun",25,0,"notNoun",1,1481
"1102","AAM12","AAM","alone","filler","notNoun",3,0,"notNoun",1,1015
"1103","AAM12","AAM","america","filler","noun",18,1,"noun",1,1170
"1104","AAM12","AAM","anemia","filler","noun",29,1,"noun",1,1738
"1105","AAM12","AAM","animal","filler","noun",54,1,"noun",1,854
"1106","AAM12","AAM","annoying","filler","notNoun",27,0,"notNoun",1,944
"1107","AAM12","AAM","appear","filler","notNoun",6,0,"notNoun",1,1264
"1108","AAM12","AAM","around","filler","notNoun",37,0,"notNoun",1,1616
"1109","AAM12","AAM","avenue","filler","noun",5,1,"noun",1,1077
"1110","AAM12","AAM","bakery","filler","noun",61,1,"noun",1,995
"1111","AAM12","AAM","ballerina","filler","noun",63,1,"noun",1,1238
"1112","AAM12","AAM","basementstep11","critical","noun",10,1,"noun",1,1057
"1113","AAM12","AAM","beauty","filler","noun",48,1,"noun",1,1024
"1114","AAM12","AAM","become","filler","notNoun",72,0,"notNoun",1,1440
"1115","AAM12","AAM","brain","filler","noun",88,1,"noun",1,1040
"1116","AAM12","AAM","camera","filler","noun",46,0,"notNoun",0,1125
"1117","AAM12","AAM","casserolestep12","critical","noun",76,0,"notNoun",0,1303
"1118","AAM12","AAM","ciderstep9","critical","noun",62,1,"noun",1,1199
"1119","AAM12","AAM","degree","filler","noun",42,1,"noun",1,993
"1120","AAM12","AAM","depend","filler","notNoun",49,0,"notNoun",1,1457
"1121","AAM12","AAM","develop","filler","notNoun",35,0,"notNoun",1,1203
"1122","AAM12","AAM","document","filler","noun",36,1,"noun",1,2030
"1123","AAM12","AAM","dragon","filler","noun",24,1,"noun",1,984
"1124","AAM12","AAM","embody","filler","notNoun",89,0,"notNoun",1,2144
"1125","AAM12","AAM","energy","filler","noun",84,0,"notNoun",0,1069
"1126","AAM12","AAM","engine","filler","noun",52,1,"noun",1,1275
"1127","AAM12","AAM","enroll","filler","notNoun",57,0,"notNoun",1,2400
"1128","AAM12","AAM","eternal","filler","notNoun",74,0,"notNoun",1,1691
"1129","AAM12","AAM","evolve","filler","notNoun",16,0,"notNoun",1,1286
"1130","AAM12","AAM","failure","filler","noun",19,0,"notNoun",0,1084
"1131","AAM12","AAM","family","filler","noun",91,1,"noun",1,1002
"1132","AAM12","AAM","felony","filler","noun",86,0,"notNoun",0,1225
"1133","AAM12","AAM","freeze","filler","notNoun",12,0,"notNoun",1,1028
"1134","AAM12","AAM","fumble","filler","notNoun",53,1,"noun",0,1866
"1135","AAM12","AAM","garden","filler","noun",96,1,"noun",1,982
"1136","AAM12","AAM","gasolinestep11","critical","noun",99,1,"noun",1,980
"1137","AAM12","AAM","global","filler","notNoun",66,1,"noun",0,1240
"1138","AAM12","AAM","grapple","filler","notNoun",34,0,"notNoun",1,1034
"1139","AAM12","AAM","guilty","filler","notNoun",78,0,"notNoun",1,2263
"1140","AAM12","AAM","gullible","filler","notNoun",90,0,"notNoun",1,1298
"1141","AAM12","AAM","hamburger","filler","noun",65,1,"noun",1,1197
"1142","AAM12","AAM","harmful","filler","notNoun",8,0,"notNoun",1,1498
"1143","AAM12","AAM","hidden","filler","notNoun",0,0,"notNoun",1,1368
"1144","AAM12","AAM","honeymoon","filler","noun",51,1,"noun",1,1589
"1145","AAM12","AAM","human","filler","noun",60,1,"noun",1,952
"1146","AAM12","AAM","ignore","filler","notNoun",47,0,"notNoun",1,1629
"1147","AAM12","AAM","image","filler","noun",45,1,"noun",1,952
"1148","AAM12","AAM","immoral","filler","notNoun",95,0,"notNoun",1,1135
"1149","AAM12","AAM","immune","filler","notNoun",70,1,"noun",0,1358
"1150","AAM12","AAM","ironic","filler","notNoun",85,0,"notNoun",1,1945
"1151","AAM12","AAM","kidnap","filler","notNoun",83,0,"notNoun",1,1487
"1152","AAM12","AAM","lawyer","filler","noun",1,0,"notNoun",0,880
"1153","AAM12","AAM","lunatic","filler","notNoun",87,1,"noun",0,1719
"1154","AAM12","AAM","manually","filler","notNoun",21,0,"notNoun",1,1353
"1155","AAM12","AAM","marina","filler","noun",98,1,"noun",1,1424
"1156","AAM12","AAM","military","filler","noun",38,1,"noun",1,1226
"1157","AAM12","AAM","mineral","filler","noun",64,1,"noun",1,1036
"1158","AAM12","AAM","momentary","filler","notNoun",44,0,"notNoun",1,1550
"1159","AAM12","AAM","occupy","filler","notNoun",79,0,"notNoun",1,1118
"1160","AAM12","AAM","omelet","filler","noun",30,1,"noun",1,1044
"1161","AAM12","AAM","opaque","filler","notNoun",11,0,"notNoun",1,1157
"1162","AAM12","AAM","orbital","filler","notNoun",58,1,"noun",0,1238
"1163","AAM12","AAM","overcome","filler","notNoun",97,0,"notNoun",1,2220
"1164","AAM12","AAM","parable","filler","noun",68,0,"notNoun",0,2084
"1165","AAM12","AAM","parrot","filler","noun",39,1,"noun",1,1072
"1166","AAM12","AAM","pineapple","filler","noun",32,1,"noun",1,883
"1167","AAM12","AAM","recovery","filler","noun",31,0,"notNoun",0,1251
"1168","AAM12","AAM","regular","filler","notNoun",23,0,"notNoun",1,1353
"1169","AAM12","AAM","relate","filler","notNoun",93,0,"notNoun",1,1815
"1170","AAM12","AAM","remedial","filler","notNoun",28,0,"notNoun",1,1821
"1171","AAM12","AAM","remind","filler","notNoun",7,0,"notNoun",1,1212
"1172","AAM12","AAM","romantic","filler","notNoun",43,0,"notNoun",1,1361
"1173","AAM12","AAM","royalty","filler","noun",94,0,"notNoun",0,2339
"1174","AAM12","AAM","sabrestep10","critical","noun",17,0,"notNoun",0,1196
"1175","AAM12","AAM","saltystep14","critical","notNoun",26,1,"noun",0,1545
"1176","AAM12","AAM","sandalstep11","critical","noun",13,1,"noun",1,1181
"1177","AAM12","AAM","seaweedstep12","critical","noun",82,1,"noun",1,1295
"1178","AAM12","AAM","secludedstep10","critical","notNoun",9,0,"notNoun",1,1277
"1179","AAM12","AAM","secondstep11","critical","noun",75,0,"notNoun",0,2100
"1180","AAM12","AAM","severalstep9","critical","notNoun",71,0,"notNoun",1,2304
"1181","AAM12","AAM","sidewalkstep8","critical","noun",73,1,"noun",1,1023
"1182","AAM12","AAM","silverstep10","critical","noun",55,1,"noun",1,1183
"1183","AAM12","AAM","similarstep10","critical","notNoun",22,0,"notNoun",1,1395
"1184","AAM12","AAM","solidstep12","critical","notNoun",40,0,"notNoun",1,2944
"1185","AAM12","AAM","submarinestep10","critical","noun",20,1,"noun",1,1276
"1186","AAM12","AAM","sufferstep8","critical","notNoun",14,1,"noun",0,1706
"1187","AAM12","AAM","superpowerstep12","critical","noun",81,0,"notNoun",0,1951
"1188","AAM12","AAM","surrenderstep8","critical","notNoun",92,0,"notNoun",1,2321
"1189","AAM12","AAM","tobacco","filler","noun",2,1,"noun",1,1108
"1190","AAM12","AAM","totally","filler","notNoun",4,0,"notNoun",1,1111
"1191","AAM12","AAM","tutorial","filler","noun",15,1,"noun",1,3258
"1192","AAM12","AAM","typical","filler","notNoun",77,0,"notNoun",1,2496
"1193","AAM12","AAM","umbrella","filler","noun",67,1,"noun",1,1413
"1194","AAM12","AAM","unique","filler","notNoun",80,0,"notNoun",1,1427
"1195","AAM12","AAM","vibrant","filler","notNoun",59,0,"notNoun",1,1074
"1196","AAM12","AAM","warrantee","filler","noun",50,0,"notNoun",0,1112
"1197","AAM12","AAM","weekly","filler","notNoun",41,0,"notNoun",1,2003
"1198","AAM12","AAM","wrinkle","filler","noun",56,0,"notNoun",0,1232
"1199","AAM12","AAM","yell","filler","notNoun",33,1,"noun",0,1362
"1200","AAM12","AAM","yoghurt","filler","noun",69,1,"noun",1,1611
"1201","AAM13","AAM","acerbicstep12","critical","notNoun",7,0,"notNoun",1,1825
"1202","AAM13","AAM","alone","filler","notNoun",2,0,"notNoun",1,1578
"1203","AAM13","AAM","america","filler","noun",18,1,"noun",1,1220
"1204","AAM13","AAM","anemia","filler","noun",52,0,"notNoun",0,1541
"1205","AAM13","AAM","animal","filler","noun",92,1,"noun",1,1429
"1206","AAM13","AAM","annoying","filler","notNoun",98,0,"notNoun",1,1083
"1207","AAM13","AAM","appear","filler","notNoun",42,0,"notNoun",1,1449
"1208","AAM13","AAM","around","filler","notNoun",68,1,"noun",0,899
"1209","AAM13","AAM","avenue","filler","noun",24,0,"notNoun",0,1570
"1210","AAM13","AAM","bakery","filler","noun",97,1,"noun",1,1113
"1211","AAM13","AAM","ballerina","filler","noun",29,1,"noun",1,963
"1212","AAM13","AAM","basementstep11","critical","noun",72,1,"noun",1,1077
"1213","AAM13","AAM","beauty","filler","noun",33,0,"notNoun",0,1124
"1214","AAM13","AAM","become","filler","notNoun",93,0,"notNoun",1,1184
"1215","AAM13","AAM","brain","filler","noun",26,1,"noun",1,1138
"1216","AAM13","AAM","camera","filler","noun",44,1,"noun",1,1138
"1217","AAM13","AAM","casserolestep12","critical","noun",67,1,"noun",1,1004
"1218","AAM13","AAM","ciderstep9","critical","noun",5,1,"noun",1,1064
"1219","AAM13","AAM","degree","filler","noun",56,1,"noun",1,1048
"1220","AAM13","AAM","depend","filler","notNoun",95,0,"notNoun",1,1315
"1221","AAM13","AAM","develop","filler","notNoun",25,0,"notNoun",1,1194
"1222","AAM13","AAM","document","filler","noun",40,1,"noun",1,1070
"1223","AAM13","AAM","dragon","filler","noun",66,1,"noun",1,941
"1224","AAM13","AAM","embody","filler","notNoun",84,0,"notNoun",1,1105
"1225","AAM13","AAM","energy","filler","noun",16,1,"noun",1,1294
"1226","AAM13","AAM","engine","filler","noun",87,1,"noun",1,1062
"1227","AAM13","AAM","enroll","filler","notNoun",61,0,"notNoun",1,1543
"1228","AAM13","AAM","eternal","filler","notNoun",4,0,"notNoun",1,1671
"1229","AAM13","AAM","evolve","filler","notNoun",22,1,"noun",0,1216
"1230","AAM13","AAM","failure","filler","noun",49,0,"notNoun",0,1210
"1231","AAM13","AAM","family","filler","noun",35,1,"noun",1,1153
"1232","AAM13","AAM","felony","filler","noun",76,0,"notNoun",0,1105
"1233","AAM13","AAM","freeze","filler","notNoun",38,0,"notNoun",1,1628
"1234","AAM13","AAM","fumble","filler","notNoun",62,1,"noun",0,1349
"1235","AAM13","AAM","garden","filler","noun",57,1,"noun",1,991
"1236","AAM13","AAM","gasolinestep11","critical","noun",12,1,"noun",1,1312
"1237","AAM13","AAM","global","filler","notNoun",3,1,"noun",0,1017
"1238","AAM13","AAM","grapple","filler","notNoun",63,1,"noun",0,1756
"1239","AAM13","AAM","guilty","filler","notNoun",30,0,"notNoun",1,1155
"1240","AAM13","AAM","gullible","filler","notNoun",34,0,"notNoun",1,1314
"1241","AAM13","AAM","hamburger","filler","noun",32,1,"noun",1,1105
"1242","AAM13","AAM","harmful","filler","notNoun",0,0,"notNoun",1,1177
"1243","AAM13","AAM","hidden","filler","notNoun",43,0,"notNoun",1,1311
"1244","AAM13","AAM","honeymoon","filler","noun",31,0,"notNoun",0,1360
"1245","AAM13","AAM","human","filler","noun",58,1,"noun",1,1191
"1246","AAM13","AAM","ignore","filler","notNoun",85,0,"notNoun",1,1393
"1247","AAM13","AAM","image","filler","noun",55,1,"noun",1,1045
"1248","AAM13","AAM","immoral","filler","notNoun",45,0,"notNoun",1,1022
"1249","AAM13","AAM","immune","filler","notNoun",65,0,"notNoun",1,1157
"1250","AAM13","AAM","ironic","filler","notNoun",23,0,"notNoun",1,1235
"1251","AAM13","AAM","kidnap","filler","notNoun",88,1,"noun",0,1338
"1252","AAM13","AAM","lawyer","filler","noun",41,1,"noun",1,1212
"1253","AAM13","AAM","lunatic","filler","notNoun",15,0,"notNoun",1,1146
"1254","AAM13","AAM","manually","filler","notNoun",64,0,"notNoun",1,1261
"1255","AAM13","AAM","marina","filler","noun",82,1,"noun",1,1075
"1256","AAM13","AAM","military","filler","noun",80,1,"noun",1,1080
"1257","AAM13","AAM","mineral","filler","noun",10,1,"noun",1,916
"1258","AAM13","AAM","momentary","filler","notNoun",54,0,"notNoun",1,1207
"1259","AAM13","AAM","occupy","filler","notNoun",39,0,"notNoun",1,1582
"1260","AAM13","AAM","omelet","filler","noun",8,1,"noun",1,995
"1261","AAM13","AAM","opaque","filler","notNoun",86,0,"notNoun",1,1640
"1262","AAM13","AAM","orbital","filler","notNoun",36,1,"noun",0,1064
"1263","AAM13","AAM","overcome","filler","notNoun",48,0,"notNoun",1,1374
"1264","AAM13","AAM","parable","filler","noun",79,0,"notNoun",0,1093
"1265","AAM13","AAM","parrot","filler","noun",13,1,"noun",1,993
"1266","AAM13","AAM","pineapple","filler","noun",19,1,"noun",1,1145
"1267","AAM13","AAM","recovery","filler","noun",50,0,"notNoun",0,1819
"1268","AAM13","AAM","regular","filler","notNoun",83,0,"notNoun",1,1511
"1269","AAM13","AAM","relate","filler","notNoun",20,0,"notNoun",1,1409
"1270","AAM13","AAM","remedial","filler","notNoun",17,0,"notNoun",1,1241
"1271","AAM13","AAM","remind","filler","notNoun",81,0,"notNoun",1,1868
"1272","AAM13","AAM","romantic","filler","notNoun",78,0,"notNoun",1,1495
"1273","AAM13","AAM","royalty","filler","noun",89,0,"notNoun",0,1408
"1274","AAM13","AAM","sabrestep10","critical","noun",74,1,"noun",1,1700
"1275","AAM13","AAM","saltystep14","critical","notNoun",47,0,"notNoun",1,1178
"1276","AAM13","AAM","sandalstep11","critical","noun",75,1,"noun",1,1782
"1277","AAM13","AAM","seaweedstep12","critical","noun",53,1,"noun",1,1359
"1278","AAM13","AAM","secludedstep10","critical","notNoun",91,0,"notNoun",1,1102
"1279","AAM13","AAM","secondstep11","critical","noun",60,1,"noun",1,1325
"1280","AAM13","AAM","severalstep9","critical","notNoun",21,0,"notNoun",1,1243
"1281","AAM13","AAM","sidewalkstep8","critical","noun",14,1,"noun",1,1906
"1282","AAM13","AAM","silverstep10","critical","noun",1,1,"noun",1,1401
"1283","AAM13","AAM","similarstep10","critical","notNoun",69,0,"notNoun",1,1150
"1284","AAM13","AAM","solidstep12","critical","notNoun",37,1,"noun",0,1495
"1285","AAM13","AAM","submarinestep10","critical","noun",27,1,"noun",1,1313
"1286","AAM13","AAM","sufferstep8","critical","notNoun",6,0,"notNoun",1,1034
"1287","AAM13","AAM","superpowerstep12","critical","noun",11,1,"noun",1,1322
"1288","AAM13","AAM","surrenderstep8","critical","notNoun",70,0,"notNoun",1,1316
"1289","AAM13","AAM","tobacco","filler","noun",51,1,"noun",1,878
"1290","AAM13","AAM","totally","filler","notNoun",9,0,"notNoun",1,1429
"1291","AAM13","AAM","tutorial","filler","noun",73,1,"noun",1,1497
"1292","AAM13","AAM","typical","filler","notNoun",59,0,"notNoun",1,1390
"1293","AAM13","AAM","umbrella","filler","noun",94,1,"noun",1,1148
"1294","AAM13","AAM","unique","filler","notNoun",28,0,"notNoun",1,951
"1295","AAM13","AAM","vibrant","filler","notNoun",46,0,"notNoun",1,1661
"1296","AAM13","AAM","warrantee","filler","noun",96,0,"notNoun",0,1336
"1297","AAM13","AAM","weekly","filler","notNoun",71,0,"notNoun",1,1448
"1298","AAM13","AAM","wrinkle","filler","noun",77,1,"noun",1,1252
"1299","AAM13","AAM","yell","filler","notNoun",99,1,"noun",0,1134
"1300","AAM13","AAM","yoghurt","filler","noun",90,1,"noun",1,925
"1301","AAM14","AAM","acerbicstep12","critical","notNoun",7,0,"notNoun",1,1563
"1302","AAM14","AAM","alone","filler","notNoun",2,0,"notNoun",1,1017
"1303","AAM14","AAM","america","filler","noun",18,1,"noun",1,1651
"1304","AAM14","AAM","anemia","filler","noun",52,0,"notNoun",0,1266
"1305","AAM14","AAM","animal","filler","noun",92,1,"noun",1,2148
"1306","AAM14","AAM","annoying","filler","notNoun",98,0,"notNoun",1,1022
"1307","AAM14","AAM","appear","filler","notNoun",42,0,"notNoun",1,1298
"1308","AAM14","AAM","around","filler","notNoun",68,0,"notNoun",1,2033
"1309","AAM14","AAM","avenue","filler","noun",24,0,"notNoun",0,1542
"1310","AAM14","AAM","bakery","filler","noun",97,1,"noun",1,967
"1311","AAM14","AAM","ballerina","filler","noun",29,1,"noun",1,867
"1312","AAM14","AAM","basementstep11","critical","noun",72,1,"noun",1,1005
"1313","AAM14","AAM","beauty","filler","noun",33,0,"notNoun",0,1068
"1314","AAM14","AAM","become","filler","notNoun",93,0,"notNoun",1,1116
"1315","AAM14","AAM","brain","filler","noun",26,1,"noun",1,1177
"1316","AAM14","AAM","camera","filler","noun",44,1,"noun",1,1302
"1317","AAM14","AAM","casserolestep12","critical","noun",67,1,"noun",1,1646
"1318","AAM14","AAM","ciderstep9","critical","noun",5,0,"notNoun",0,1317
"1319","AAM14","AAM","degree","filler","noun",56,1,"noun",1,1934
"1320","AAM14","AAM","depend","filler","notNoun",95,0,"notNoun",1,1246
"1321","AAM14","AAM","develop","filler","notNoun",25,0,"notNoun",1,1230
"1322","AAM14","AAM","document","filler","noun",40,1,"noun",1,1406
"1323","AAM14","AAM","dragon","filler","noun",66,0,"notNoun",0,1178
"1324","AAM14","AAM","embody","filler","notNoun",84,0,"notNoun",1,1090
"1325","AAM14","AAM","energy","filler","noun",16,0,"notNoun",0,915
"1326","AAM14","AAM","engine","filler","noun",87,1,"noun",1,1096
"1327","AAM14","AAM","enroll","filler","notNoun",61,1,"noun",0,1431
"1328","AAM14","AAM","eternal","filler","notNoun",4,0,"notNoun",1,1689
"1329","AAM14","AAM","evolve","filler","notNoun",22,0,"notNoun",1,1347
"1330","AAM14","AAM","failure","filler","noun",49,0,"notNoun",0,1315
"1331","AAM14","AAM","family","filler","noun",35,1,"noun",1,1309
"1332","AAM14","AAM","felony","filler","noun",76,0,"notNoun",0,1065
"1333","AAM14","AAM","freeze","filler","notNoun",38,1,"noun",0,1209
"1334","AAM14","AAM","fumble","filler","notNoun",62,0,"notNoun",1,1222
"1335","AAM14","AAM","garden","filler","noun",57,1,"noun",1,918
"1336","AAM14","AAM","gasolinestep11","critical","noun",12,1,"noun",1,1286
"1337","AAM14","AAM","global","filler","notNoun",3,0,"notNoun",1,792
"1338","AAM14","AAM","grapple","filler","notNoun",63,1,"noun",0,1774
"1339","AAM14","AAM","guilty","filler","notNoun",30,0,"notNoun",1,1017
"1340","AAM14","AAM","gullible","filler","notNoun",34,0,"notNoun",1,930
"1341","AAM14","AAM","hamburger","filler","noun",32,1,"noun",1,1148
"1342","AAM14","AAM","harmful","filler","notNoun",0,0,"notNoun",1,1042
"1343","AAM14","AAM","hidden","filler","notNoun",43,0,"notNoun",1,1089
"1344","AAM14","AAM","honeymoon","filler","noun",31,0,"notNoun",0,1115
"1345","AAM14","AAM","human","filler","noun",58,1,"noun",1,1459
"1346","AAM14","AAM","ignore","filler","notNoun",85,0,"notNoun",1,1035
"1347","AAM14","AAM","image","filler","noun",55,0,"notNoun",0,1188
"1348","AAM14","AAM","immoral","filler","notNoun",45,0,"notNoun",1,1342
"1349","AAM14","AAM","immune","filler","notNoun",65,0,"notNoun",1,1152
"1350","AAM14","AAM","ironic","filler","notNoun",23,0,"notNoun",1,1295
"1351","AAM14","AAM","kidnap","filler","notNoun",88,0,"notNoun",1,1309
"1352","AAM14","AAM","lawyer","filler","noun",41,0,"notNoun",0,1432
"1353","AAM14","AAM","lunatic","filler","notNoun",15,0,"notNoun",1,989
"1354","AAM14","AAM","manually","filler","notNoun",64,0,"notNoun",1,1216
"1355","AAM14","AAM","marina","filler","noun",82,1,"noun",1,1628
"1356","AAM14","AAM","military","filler","noun",80,1,"noun",1,1287
"1357","AAM14","AAM","mineral","filler","noun",10,0,"notNoun",0,1086
"1358","AAM14","AAM","momentary","filler","notNoun",54,0,"notNoun",1,1481
"1359","AAM14","AAM","occupy","filler","notNoun",39,0,"notNoun",1,1450
"1360","AAM14","AAM","omelet","filler","noun",8,1,"noun",1,1015
"1361","AAM14","AAM","opaque","filler","notNoun",86,0,"notNoun",1,1140
"1362","AAM14","AAM","orbital","filler","notNoun",36,0,"notNoun",1,895
"1363","AAM14","AAM","overcome","filler","notNoun",48,0,"notNoun",1,1323
"1364","AAM14","AAM","parable","filler","noun",79,0,"notNoun",0,1318
"1365","AAM14","AAM","parrot","filler","noun",13,1,"noun",1,935
"1366","AAM14","AAM","pineapple","filler","noun",19,1,"noun",1,884
"1367","AAM14","AAM","recovery","filler","noun",50,0,"notNoun",0,1579
"1368","AAM14","AAM","regular","filler","notNoun",83,0,"notNoun",1,1323
"1369","AAM14","AAM","relate","filler","notNoun",20,0,"notNoun",1,1413
"1370","AAM14","AAM","remedial","filler","notNoun",17,0,"notNoun",1,1615
"1371","AAM14","AAM","remind","filler","notNoun",81,0,"notNoun",1,1798
"1372","AAM14","AAM","romantic","filler","notNoun",78,0,"notNoun",1,1254
"1373","AAM14","AAM","royalty","filler","noun",89,0,"notNoun",0,1188
"1374","AAM14","AAM","sabrestep10","critical","noun",74,0,"notNoun",0,1846
"1375","AAM14","AAM","saltystep14","critical","notNoun",47,0,"notNoun",1,1421
"1376","AAM14","AAM","sandalstep11","critical","noun",75,1,"noun",1,1442
"1377","AAM14","AAM","seaweedstep12","critical","noun",53,1,"noun",1,1299
"1378","AAM14","AAM","secludedstep10","critical","notNoun",91,0,"notNoun",1,1536
"1379","AAM14","AAM","secondstep11","critical","noun",60,0,"notNoun",0,1224
"1380","AAM14","AAM","severalstep9","critical","notNoun",21,0,"notNoun",1,1267
"1381","AAM14","AAM","sidewalkstep8","critical","noun",14,1,"noun",1,1464
"1382","AAM14","AAM","silverstep10","critical","noun",1,0,"notNoun",0,1552
"1383","AAM14","AAM","similarstep10","critical","notNoun",69,0,"notNoun",1,1153
"1384","AAM14","AAM","solidstep12","critical","notNoun",37,0,"notNoun",1,1192
"1385","AAM14","AAM","submarinestep10","critical","noun",27,1,"noun",1,1284
"1386","AAM14","AAM","sufferstep8","critical","notNoun",6,0,"notNoun",1,813
"1387","AAM14","AAM","superpowerstep12","critical","noun",11,0,"notNoun",0,1114
"1388","AAM14","AAM","surrenderstep8","critical","notNoun",70,0,"notNoun",1,1065
"1389","AAM14","AAM","tobacco","filler","noun",51,1,"noun",1,1711
"1390","AAM14","AAM","totally","filler","notNoun",9,0,"notNoun",1,1432
"1391","AAM14","AAM","tutorial","filler","noun",73,1,"noun",1,2108
"1392","AAM14","AAM","typical","filler","notNoun",59,0,"notNoun",1,1255
"1393","AAM14","AAM","umbrella","filler","noun",94,1,"noun",1,978
"1394","AAM14","AAM","unique","filler","notNoun",28,0,"notNoun",1,1172
"1395","AAM14","AAM","vibrant","filler","notNoun",46,0,"notNoun",1,1119
"1396","AAM14","AAM","warrantee","filler","noun",96,0,"notNoun",0,1109
"1397","AAM14","AAM","weekly","filler","notNoun",71,0,"notNoun",1,1263
"1398","AAM14","AAM","wrinkle","filler","noun",77,0,"notNoun",0,1255
"1399","AAM14","AAM","yell","filler","notNoun",99,1,"noun",0,1497
"1400","AAM14","AAM","yoghurt","filler","noun",90,1,"noun",1,935
"1501","AAM16","AAM","acerbicstep12","critical","notNoun",59,0,"notNoun",1,2737
"1502","AAM16","AAM","alone","filler","notNoun",53,0,"notNoun",1,1255
"1503","AAM16","AAM","america","filler","noun",2,1,"noun",1,898
"1504","AAM16","AAM","anemia","filler","noun",60,1,"noun",1,3633
"1505","AAM16","AAM","animal","filler","noun",27,1,"noun",1,838
"1506","AAM16","AAM","annoying","filler","notNoun",38,0,"notNoun",1,976
"1507","AAM16","AAM","appear","filler","notNoun",78,0,"notNoun",1,2133
"1508","AAM16","AAM","around","filler","notNoun",90,0,"notNoun",1,2357
"1509","AAM16","AAM","avenue","filler","noun",12,1,"noun",1,952
"1510","AAM16","AAM","bakery","filler","noun",71,1,"noun",1,960
"1511","AAM16","AAM","ballerina","filler","noun",79,1,"noun",1,960
"1512","AAM16","AAM","basementstep11","critical","noun",93,1,"noun",1,1300
"1513","AAM16","AAM","beauty","filler","noun",39,1,"noun",1,2086
"1514","AAM16","AAM","become","filler","notNoun",44,0,"notNoun",1,2156
"1515","AAM16","AAM","brain","filler","noun",62,1,"noun",1,1086
"1516","AAM16","AAM","camera","filler","noun",33,1,"noun",1,965
"1517","AAM16","AAM","casserolestep12","critical","noun",43,1,"noun",1,1206
"1518","AAM16","AAM","ciderstep9","critical","noun",32,1,"noun",1,1372
"1519","AAM16","AAM","degree","filler","noun",40,1,"noun",1,1245
"1521","AAM16","AAM","develop","filler","notNoun",74,0,"notNoun",1,1041
"1522","AAM16","AAM","document","filler","noun",85,1,"noun",1,1064
"1523","AAM16","AAM","dragon","filler","noun",9,1,"noun",1,735
"1524","AAM16","AAM","embody","filler","notNoun",57,0,"notNoun",1,1183
"1525","AAM16","AAM","energy","filler","noun",31,0,"notNoun",0,2323
"1526","AAM16","AAM","engine","filler","noun",16,1,"noun",1,1020
"1527","AAM16","AAM","enroll","filler","notNoun",36,1,"noun",0,1907
"1528","AAM16","AAM","eternal","filler","notNoun",50,1,"noun",0,2524
"1529","AAM16","AAM","evolve","filler","notNoun",92,0,"notNoun",1,1323
"1530","AAM16","AAM","failure","filler","noun",82,0,"notNoun",0,1059
"1531","AAM16","AAM","family","filler","noun",84,1,"noun",1,3561
"1532","AAM16","AAM","felony","filler","noun",83,0,"notNoun",0,1150
"1533","AAM16","AAM","freeze","filler","notNoun",98,0,"notNoun",1,1634
"1534","AAM16","AAM","fumble","filler","notNoun",3,0,"notNoun",1,3582
"1535","AAM16","AAM","garden","filler","noun",25,1,"noun",1,942
"1536","AAM16","AAM","gasolinestep11","critical","noun",22,1,"noun",1,972
"1537","AAM16","AAM","global","filler","notNoun",97,1,"noun",0,969
"1538","AAM16","AAM","grapple","filler","notNoun",20,1,"noun",0,1350
"1539","AAM16","AAM","guilty","filler","notNoun",64,0,"notNoun",1,1802
"1540","AAM16","AAM","gullible","filler","notNoun",47,0,"notNoun",1,1040
"1541","AAM16","AAM","hamburger","filler","noun",11,1,"noun",1,1048
"1542","AAM16","AAM","harmful","filler","notNoun",26,0,"notNoun",1,897
"1543","AAM16","AAM","hidden","filler","notNoun",76,0,"notNoun",1,1019
"1544","AAM16","AAM","honeymoon","filler","noun",19,1,"noun",1,1260
"1545","AAM16","AAM","human","filler","noun",29,1,"noun",1,807
"1546","AAM16","AAM","ignore","filler","notNoun",30,0,"notNoun",1,901
"1547","AAM16","AAM","image","filler","noun",23,1,"noun",1,2087
"1548","AAM16","AAM","immoral","filler","notNoun",45,0,"notNoun",1,3108
"1549","AAM16","AAM","immune","filler","notNoun",10,0,"notNoun",1,2044
"1550","AAM16","AAM","ironic","filler","notNoun",67,0,"notNoun",1,1336
"1551","AAM16","AAM","kidnap","filler","notNoun",73,0,"notNoun",1,1479
"1552","AAM16","AAM","lawyer","filler","noun",51,1,"noun",1,1027
"1553","AAM16","AAM","lunatic","filler","notNoun",95,1,"noun",0,3614
"1554","AAM16","AAM","manually","filler","notNoun",61,0,"notNoun",1,1266
"1555","AAM16","AAM","marina","filler","noun",37,1,"noun",1,929
"1556","AAM16","AAM","military","filler","noun",77,0,"notNoun",0,1211
"1557","AAM16","AAM","mineral","filler","noun",70,1,"noun",1,853
"1558","AAM16","AAM","momentary","filler","notNoun",21,0,"notNoun",1,1215
"1559","AAM16","AAM","occupy","filler","notNoun",13,0,"notNoun",1,1116
"1560","AAM16","AAM","omelet","filler","noun",88,1,"noun",1,758
"1561","AAM16","AAM","opaque","filler","notNoun",4,1,"noun",0,1224
"1562","AAM16","AAM","orbital","filler","notNoun",35,1,"noun",0,1031
"1563","AAM16","AAM","overcome","filler","notNoun",42,0,"notNoun",1,1108
"1564","AAM16","AAM","parable","filler","noun",63,1,"noun",1,2497
"1565","AAM16","AAM","parrot","filler","noun",94,1,"noun",1,781
"1566","AAM16","AAM","pineapple","filler","noun",66,1,"noun",1,1884
"1567","AAM16","AAM","recovery","filler","noun",87,0,"notNoun",0,3087
"1568","AAM16","AAM","regular","filler","notNoun",18,0,"notNoun",1,3352
"1569","AAM16","AAM","relate","filler","notNoun",0,0,"notNoun",1,995
"1570","AAM16","AAM","remedial","filler","notNoun",55,1,"noun",0,2301
"1571","AAM16","AAM","remind","filler","notNoun",5,0,"notNoun",1,1063
"1572","AAM16","AAM","romantic","filler","notNoun",86,0,"notNoun",1,1160
"1573","AAM16","AAM","royalty","filler","noun",49,0,"notNoun",0,1623
"1574","AAM16","AAM","sabrestep10","critical","noun",69,0,"notNoun",0,2477
"1575","AAM16","AAM","saltystep14","critical","notNoun",28,0,"notNoun",1,1263
"1576","AAM16","AAM","sandalstep11","critical","noun",48,1,"noun",1,1164
"1577","AAM16","AAM","seaweedstep12","critical","noun",6,1,"noun",1,943
"1578","AAM16","AAM","secludedstep10","critical","notNoun",34,0,"notNoun",1,4334
"1579","AAM16","AAM","secondstep11","critical","noun",46,0,"notNoun",0,1900
"1580","AAM16","AAM","severalstep9","critical","notNoun",24,0,"notNoun",1,1951
"1581","AAM16","AAM","sidewalkstep8","critical","noun",72,1,"noun",1,2801
"1582","AAM16","AAM","silverstep10","critical","noun",65,1,"noun",1,1875
"1583","AAM16","AAM","similarstep10","critical","notNoun",99,0,"notNoun",1,1477
"1584","AAM16","AAM","solidstep12","critical","notNoun",52,1,"noun",0,1281
"1585","AAM16","AAM","submarinestep10","critical","noun",54,1,"noun",1,1090
"1586","AAM16","AAM","sufferstep8","critical","notNoun",15,0,"notNoun",1,1314
"1587","AAM16","AAM","superpowerstep12","critical","noun",80,1,"noun",1,1332
"1588","AAM16","AAM","surrenderstep8","critical","notNoun",17,0,"notNoun",1,2692
"1589","AAM16","AAM","tobacco","filler","noun",56,1,"noun",1,896
"1590","AAM16","AAM","totally","filler","notNoun",8,0,"notNoun",1,2571
"1591","AAM16","AAM","tutorial","filler","noun",96,1,"noun",1,1467
"1592","AAM16","AAM","typical","filler","notNoun",81,0,"notNoun",1,1009
"1593","AAM16","AAM","umbrella","filler","noun",41,1,"noun",1,870
"1594","AAM16","AAM","unique","filler","notNoun",58,0,"notNoun",1,2464
"1595","AAM16","AAM","vibrant","filler","notNoun",75,0,"notNoun",1,1172
"1596","AAM16","AAM","warrantee","filler","noun",68,1,"noun",1,1647
"1597","AAM16","AAM","weekly","filler","notNoun",91,0,"notNoun",1,1108
"1598","AAM16","AAM","wrinkle","filler","noun",14,1,"noun",1,1336
"1599","AAM16","AAM","yell","filler","notNoun",1,0,"notNoun",1,2412
"1600","AAM16","AAM","yoghurt","filler","noun",7,1,"noun",1,1035
"1601","AAM17","AAM","acerbicstep12","critical","notNoun",59,0,"notNoun",1,4642
"1603","AAM17","AAM","america","filler","noun",2,1,"noun",1,859
"1605","AAM17","AAM","animal","filler","noun",27,1,"noun",1,880
"1606","AAM17","AAM","annoying","filler","notNoun",38,0,"notNoun",1,1088
"1607","AAM17","AAM","appear","filler","notNoun",78,0,"notNoun",1,958
"1608","AAM17","AAM","around","filler","notNoun",90,0,"notNoun",1,2093
"1609","AAM17","AAM","avenue","filler","noun",12,1,"noun",1,844
"1610","AAM17","AAM","bakery","filler","noun",71,1,"noun",1,899
"1611","AAM17","AAM","ballerina","filler","noun",79,1,"noun",1,854
"1612","AAM17","AAM","basementstep11","critical","noun",93,1,"noun",1,1514
"1613","AAM17","AAM","beauty","filler","noun",39,1,"noun",1,2050
"1614","AAM17","AAM","become","filler","notNoun",44,0,"notNoun",1,3628
"1615","AAM17","AAM","brain","filler","noun",62,1,"noun",1,766
"1616","AAM17","AAM","camera","filler","noun",33,1,"noun",1,1073
"1617","AAM17","AAM","casserolestep12","critical","noun",43,1,"noun",1,1070
"1618","AAM17","AAM","ciderstep9","critical","noun",32,1,"noun",1,976
"1619","AAM17","AAM","degree","filler","noun",40,1,"noun",1,857
"1620","AAM17","AAM","depend","filler","notNoun",89,0,"notNoun",1,1852
"1621","AAM17","AAM","develop","filler","notNoun",74,0,"notNoun",1,1262
"1622","AAM17","AAM","document","filler","noun",85,1,"noun",1,710
"1623","AAM17","AAM","dragon","filler","noun",9,1,"noun",1,814
"1624","AAM17","AAM","embody","filler","notNoun",57,1,"noun",0,3402
"1625","AAM17","AAM","energy","filler","noun",31,1,"noun",1,3534
"1626","AAM17","AAM","engine","filler","noun",16,1,"noun",1,866
"1627","AAM17","AAM","enroll","filler","notNoun",36,0,"notNoun",1,1455
"1628","AAM17","AAM","eternal","filler","notNoun",50,1,"noun",0,2914
"1629","AAM17","AAM","evolve","filler","notNoun",92,0,"notNoun",1,1084
"1630","AAM17","AAM","failure","filler","noun",82,0,"notNoun",0,1321
"1631","AAM17","AAM","family","filler","noun",84,1,"noun",1,1118
"1632","AAM17","AAM","felony","filler","noun",83,1,"noun",1,1070
"1633","AAM17","AAM","freeze","filler","notNoun",98,0,"notNoun",1,1602
"1634","AAM17","AAM","fumble","filler","notNoun",3,0,"notNoun",1,1640
"1635","AAM17","AAM","garden","filler","noun",25,1,"noun",1,649
"1636","AAM17","AAM","gasolinestep11","critical","noun",22,1,"noun",1,873
"1637","AAM17","AAM","global","filler","notNoun",97,1,"noun",0,800
"1638","AAM17","AAM","grapple","filler","notNoun",20,0,"notNoun",1,1897
"1639","AAM17","AAM","guilty","filler","notNoun",64,1,"noun",0,2233
"1640","AAM17","AAM","gullible","filler","notNoun",47,0,"notNoun",1,1027
"1641","AAM17","AAM","hamburger","filler","noun",11,1,"noun",1,1024
"1642","AAM17","AAM","harmful","filler","notNoun",26,0,"notNoun",1,1009
"1643","AAM17","AAM","hidden","filler","notNoun",76,0,"notNoun",1,1115
"1644","AAM17","AAM","honeymoon","filler","noun",19,1,"noun",1,828
"1645","AAM17","AAM","human","filler","noun",29,1,"noun",1,801
"1646","AAM17","AAM","ignore","filler","notNoun",30,0,"notNoun",1,1230
"1647","AAM17","AAM","image","filler","noun",23,1,"noun",1,691
"1648","AAM17","AAM","immoral","filler","notNoun",45,1,"noun",0,1704
"1649","AAM17","AAM","immune","filler","notNoun",10,0,"notNoun",1,2328
"1650","AAM17","AAM","ironic","filler","notNoun",67,0,"notNoun",1,1158
"1651","AAM17","AAM","kidnap","filler","notNoun",73,1,"noun",0,1175
"1652","AAM17","AAM","lawyer","filler","noun",51,1,"noun",1,899
"1653","AAM17","AAM","lunatic","filler","notNoun",95,0,"notNoun",1,1005
"1654","AAM17","AAM","manually","filler","notNoun",61,0,"notNoun",1,2070
"1655","AAM17","AAM","marina","filler","noun",37,1,"noun",1,1540
"1656","AAM17","AAM","military","filler","noun",77,1,"noun",1,837
"1657","AAM17","AAM","mineral","filler","noun",70,1,"noun",1,665
"1658","AAM17","AAM","momentary","filler","notNoun",21,0,"notNoun",1,1436
"1659","AAM17","AAM","occupy","filler","notNoun",13,0,"notNoun",1,1389
"1660","AAM17","AAM","omelet","filler","noun",88,1,"noun",1,899
"1661","AAM17","AAM","opaque","filler","notNoun",4,1,"noun",0,1312
"1662","AAM17","AAM","orbital","filler","notNoun",35,1,"noun",0,1750
"1663","AAM17","AAM","overcome","filler","notNoun",42,0,"notNoun",1,1304
"1664","AAM17","AAM","parable","filler","noun",63,1,"noun",1,1273
"1665","AAM17","AAM","parrot","filler","noun",94,1,"noun",1,591
"1666","AAM17","AAM","pineapple","filler","noun",66,1,"noun",1,708
"1667","AAM17","AAM","recovery","filler","noun",87,0,"notNoun",0,959
"1668","AAM17","AAM","regular","filler","notNoun",18,1,"noun",0,1005
"1669","AAM17","AAM","relate","filler","notNoun",0,0,"notNoun",1,1355
"1670","AAM17","AAM","remedial","filler","notNoun",55,0,"notNoun",1,1075
"1671","AAM17","AAM","remind","filler","notNoun",5,0,"notNoun",1,3294
"1672","AAM17","AAM","romantic","filler","notNoun",86,1,"noun",0,844
"1673","AAM17","AAM","royalty","filler","noun",49,1,"noun",1,1908
"1674","AAM17","AAM","sabrestep10","critical","noun",69,1,"noun",1,2723
"1675","AAM17","AAM","saltystep14","critical","notNoun",28,1,"noun",0,2528
"1676","AAM17","AAM","sandalstep11","critical","noun",48,1,"noun",1,1018
"1677","AAM17","AAM","seaweedstep12","critical","noun",6,1,"noun",1,1344
"1678","AAM17","AAM","secludedstep10","critical","notNoun",34,0,"notNoun",1,2265
"1679","AAM17","AAM","secondstep11","critical","noun",46,0,"notNoun",0,1012
"1680","AAM17","AAM","severalstep9","critical","notNoun",24,0,"notNoun",1,4097
"1681","AAM17","AAM","sidewalkstep8","critical","noun",72,1,"noun",1,3016
"1682","AAM17","AAM","silverstep10","critical","noun",65,1,"noun",1,847
"1683","AAM17","AAM","similarstep10","critical","notNoun",99,0,"notNoun",1,1283
"1684","AAM17","AAM","solidstep12","critical","notNoun",52,1,"noun",0,1188
"1685","AAM17","AAM","submarinestep10","critical","noun",54,1,"noun",1,1216
"1686","AAM17","AAM","sufferstep8","critical","notNoun",15,0,"notNoun",1,2203
"1687","AAM17","AAM","superpowerstep12","critical","noun",80,1,"noun",1,1126
"1688","AAM17","AAM","surrenderstep8","critical","notNoun",17,0,"notNoun",1,1548
"1689","AAM17","AAM","tobacco","filler","noun",56,1,"noun",1,890
"1690","AAM17","AAM","totally","filler","notNoun",8,0,"notNoun",1,1386
"1691","AAM17","AAM","tutorial","filler","noun",96,1,"noun",1,1089
"1692","AAM17","AAM","typical","filler","notNoun",81,0,"notNoun",1,1290
"1693","AAM17","AAM","umbrella","filler","noun",41,1,"noun",1,1600
"1694","AAM17","AAM","unique","filler","notNoun",58,1,"noun",0,1126
"1695","AAM17","AAM","vibrant","filler","notNoun",75,0,"notNoun",1,1432
"1696","AAM17","AAM","warrantee","filler","noun",68,1,"noun",1,1086
"1697","AAM17","AAM","weekly","filler","notNoun",91,0,"notNoun",1,1315
"1698","AAM17","AAM","wrinkle","filler","noun",14,1,"noun",1,2983
"1699","AAM17","AAM","yell","filler","notNoun",1,0,"notNoun",1,1788
"1700","AAM17","AAM","yoghurt","filler","noun",7,1,"noun",1,877
"1701","AAM18","AAM","acerbicstep12","critical","notNoun",59,0,"notNoun",1,2972
"1702","AAM18","AAM","alone","filler","notNoun",53,0,"notNoun",1,1181
"1703","AAM18","AAM","america","filler","noun",2,1,"noun",1,834
"1704","AAM18","AAM","anemia","filler","noun",60,1,"noun",1,1256
"1705","AAM18","AAM","animal","filler","noun",27,0,"notNoun",0,854
"1706","AAM18","AAM","annoying","filler","notNoun",38,0,"notNoun",1,927
"1707","AAM18","AAM","appear","filler","notNoun",78,0,"notNoun",1,1986
"1708","AAM18","AAM","around","filler","notNoun",90,0,"notNoun",1,1172
"1709","AAM18","AAM","avenue","filler","noun",12,1,"noun",1,1016
"1710","AAM18","AAM","bakery","filler","noun",71,1,"noun",1,944
"1711","AAM18","AAM","ballerina","filler","noun",79,1,"noun",1,1441
"1712","AAM18","AAM","basementstep11","critical","noun",93,1,"noun",1,1896
"1713","AAM18","AAM","beauty","filler","noun",39,1,"noun",1,742
"1714","AAM18","AAM","become","filler","notNoun",44,0,"notNoun",1,3395
"1715","AAM18","AAM","brain","filler","noun",62,1,"noun",1,1384
"1716","AAM18","AAM","camera","filler","noun",33,1,"noun",1,1040
"1717","AAM18","AAM","casserolestep12","critical","noun",43,1,"noun",1,1318
"1718","AAM18","AAM","ciderstep9","critical","noun",32,1,"noun",1,1020
"1719","AAM18","AAM","degree","filler","noun",40,0,"notNoun",0,2104
"1720","AAM18","AAM","depend","filler","notNoun",89,0,"notNoun",1,997
"1721","AAM18","AAM","develop","filler","notNoun",74,0,"notNoun",1,1405
"1722","AAM18","AAM","document","filler","noun",85,1,"noun",1,1458
"1723","AAM18","AAM","dragon","filler","noun",9,1,"noun",1,1445
"1724","AAM18","AAM","embody","filler","notNoun",57,0,"notNoun",1,1058
"1725","AAM18","AAM","energy","filler","noun",31,1,"noun",1,1480
"1726","AAM18","AAM","engine","filler","noun",16,1,"noun",1,881
"1727","AAM18","AAM","enroll","filler","notNoun",36,0,"notNoun",1,1170
"1728","AAM18","AAM","eternal","filler","notNoun",50,0,"notNoun",1,3302
"1729","AAM18","AAM","evolve","filler","notNoun",92,0,"notNoun",1,1013
"1730","AAM18","AAM","failure","filler","noun",82,1,"noun",1,1326
"1731","AAM18","AAM","family","filler","noun",84,1,"noun",1,1409
"1732","AAM18","AAM","felony","filler","noun",83,1,"noun",1,989
"1733","AAM18","AAM","freeze","filler","notNoun",98,0,"notNoun",1,1313
"1734","AAM18","AAM","fumble","filler","notNoun",3,0,"notNoun",1,1026
"1735","AAM18","AAM","garden","filler","noun",25,1,"noun",1,938
"1736","AAM18","AAM","gasolinestep11","critical","noun",22,1,"noun",1,1243
"1737","AAM18","AAM","global","filler","notNoun",97,0,"notNoun",1,1144
"1738","AAM18","AAM","grapple","filler","notNoun",20,0,"notNoun",1,903
"1739","AAM18","AAM","guilty","filler","notNoun",64,0,"notNoun",1,734
"1740","AAM18","AAM","gullible","filler","notNoun",47,0,"notNoun",1,1220
"1741","AAM18","AAM","hamburger","filler","noun",11,1,"noun",1,899
"1742","AAM18","AAM","harmful","filler","notNoun",26,0,"notNoun",1,1106
"1743","AAM18","AAM","hidden","filler","notNoun",76,0,"notNoun",1,1538
"1744","AAM18","AAM","honeymoon","filler","noun",19,1,"noun",1,1728
"1745","AAM18","AAM","human","filler","noun",29,1,"noun",1,788
"1746","AAM18","AAM","ignore","filler","notNoun",30,0,"notNoun",1,880
"1747","AAM18","AAM","image","filler","noun",23,1,"noun",1,1005
"1748","AAM18","AAM","immoral","filler","notNoun",45,0,"notNoun",1,1202
"1749","AAM18","AAM","immune","filler","notNoun",10,0,"notNoun",1,2517
"1750","AAM18","AAM","ironic","filler","notNoun",67,0,"notNoun",1,1018
"1751","AAM18","AAM","kidnap","filler","notNoun",73,0,"notNoun",1,1343
"1752","AAM18","AAM","lawyer","filler","noun",51,1,"noun",1,943
"1753","AAM18","AAM","lunatic","filler","notNoun",95,1,"noun",0,1124
"1754","AAM18","AAM","manually","filler","notNoun",61,0,"notNoun",1,1034
"1755","AAM18","AAM","marina","filler","noun",37,1,"noun",1,1277
"1756","AAM18","AAM","military","filler","noun",77,1,"noun",1,1439
"1757","AAM18","AAM","mineral","filler","noun",70,1,"noun",1,1199
"1758","AAM18","AAM","momentary","filler","notNoun",21,0,"notNoun",1,1060
"1759","AAM18","AAM","occupy","filler","notNoun",13,0,"notNoun",1,951
"1760","AAM18","AAM","omelet","filler","noun",88,1,"noun",1,1222
"1761","AAM18","AAM","opaque","filler","notNoun",4,0,"notNoun",1,1465
"1762","AAM18","AAM","orbital","filler","notNoun",35,1,"noun",0,1088
"1763","AAM18","AAM","overcome","filler","notNoun",42,0,"notNoun",1,2788
"1764","AAM18","AAM","parable","filler","noun",63,1,"noun",1,1284
"1765","AAM18","AAM","parrot","filler","noun",94,1,"noun",1,886
"1766","AAM18","AAM","pineapple","filler","noun",66,1,"noun",1,833
"1767","AAM18","AAM","recovery","filler","noun",87,0,"notNoun",0,855
"1768","AAM18","AAM","regular","filler","notNoun",18,0,"notNoun",1,1291
"1769","AAM18","AAM","relate","filler","notNoun",0,0,"notNoun",1,1068
"1770","AAM18","AAM","remedial","filler","notNoun",55,0,"notNoun",1,1401
"1771","AAM18","AAM","remind","filler","notNoun",5,0,"notNoun",1,911
"1772","AAM18","AAM","romantic","filler","notNoun",86,0,"notNoun",1,1147
"1773","AAM18","AAM","royalty","filler","noun",49,1,"noun",1,2474
"1774","AAM18","AAM","sabrestep10","critical","noun",69,0,"notNoun",0,1782
"1775","AAM18","AAM","saltystep14","critical","notNoun",28,0,"notNoun",1,1103
"1776","AAM18","AAM","sandalstep11","critical","noun",48,1,"noun",1,1220
"1777","AAM18","AAM","seaweedstep12","critical","noun",6,1,"noun",1,1438
"1778","AAM18","AAM","secludedstep10","critical","notNoun",34,0,"notNoun",1,1160
"1779","AAM18","AAM","secondstep11","critical","noun",46,0,"notNoun",0,1109
"1780","AAM18","AAM","severalstep9","critical","notNoun",24,0,"notNoun",1,1726
"1781","AAM18","AAM","sidewalkstep8","critical","noun",72,1,"noun",1,1973
"1782","AAM18","AAM","silverstep10","critical","noun",65,1,"noun",1,923
"1783","AAM18","AAM","similarstep10","critical","notNoun",99,0,"notNoun",1,1220
"1784","AAM18","AAM","solidstep12","critical","notNoun",52,1,"noun",0,1017
"1785","AAM18","AAM","submarinestep10","critical","noun",54,1,"noun",1,941
"1786","AAM18","AAM","sufferstep8","critical","notNoun",15,0,"notNoun",1,1828
"1787","AAM18","AAM","superpowerstep12","critical","noun",80,1,"noun",1,1474
"1788","AAM18","AAM","surrenderstep8","critical","notNoun",17,0,"notNoun",1,2556
"1789","AAM18","AAM","tobacco","filler","noun",56,1,"noun",1,1235
"1790","AAM18","AAM","totally","filler","notNoun",8,0,"notNoun",1,1414
"1791","AAM18","AAM","tutorial","filler","noun",96,1,"noun",1,1217
"1792","AAM18","AAM","typical","filler","notNoun",81,0,"notNoun",1,1387
"1793","AAM18","AAM","umbrella","filler","noun",41,1,"noun",1,1001
"1794","AAM18","AAM","unique","filler","notNoun",58,0,"notNoun",1,737
"1795","AAM18","AAM","vibrant","filler","notNoun",75,0,"notNoun",1,1380
"1796","AAM18","AAM","warrantee","filler","noun",68,1,"noun",1,943
"1797","AAM18","AAM","weekly","filler","notNoun",91,0,"notNoun",1,3098
"1798","AAM18","AAM","wrinkle","filler","noun",14,0,"notNoun",0,2513
"1799","AAM18","AAM","yell","filler","notNoun",1,0,"notNoun",1,1643
"1800","AAM18","AAM","yoghurt","filler","noun",7,1,"noun",1,905
"1801","AAM19","AAM","acerbicstep12","critical","notNoun",63,0,"notNoun",1,1156
"1802","AAM19","AAM","alone","filler","notNoun",77,0,"notNoun",1,1090
"1803","AAM19","AAM","america","filler","noun",10,1,"noun",1,2790
"1804","AAM19","AAM","anemia","filler","noun",56,0,"notNoun",0,855
"1805","AAM19","AAM","animal","filler","noun",42,1,"noun",1,1061
"1806","AAM19","AAM","annoying","filler","notNoun",37,0,"notNoun",1,969
"1807","AAM19","AAM","appear","filler","notNoun",27,0,"notNoun",1,985
"1808","AAM19","AAM","around","filler","notNoun",36,0,"notNoun",1,1095
"1809","AAM19","AAM","avenue","filler","noun",38,0,"notNoun",0,1274
"1810","AAM19","AAM","bakery","filler","noun",79,1,"noun",1,1665
"1811","AAM19","AAM","ballerina","filler","noun",65,1,"noun",1,2574
"1812","AAM19","AAM","basementstep11","critical","noun",33,1,"noun",1,2259
"1813","AAM19","AAM","beauty","filler","noun",90,0,"notNoun",0,983
"1814","AAM19","AAM","become","filler","notNoun",55,0,"notNoun",1,1240
"1815","AAM19","AAM","brain","filler","noun",54,1,"noun",1,1762
"1816","AAM19","AAM","camera","filler","noun",20,1,"noun",1,1030
"1817","AAM19","AAM","casserolestep12","critical","noun",3,0,"notNoun",0,1080
"1819","AAM19","AAM","degree","filler","noun",57,1,"noun",1,2077
"1820","AAM19","AAM","depend","filler","notNoun",72,0,"notNoun",1,1407
"1821","AAM19","AAM","develop","filler","notNoun",70,0,"notNoun",1,1113
"1822","AAM19","AAM","document","filler","noun",58,0,"notNoun",0,1367
"1823","AAM19","AAM","dragon","filler","noun",61,1,"noun",1,1741
"1824","AAM19","AAM","embody","filler","notNoun",28,0,"notNoun",1,1338
"1825","AAM19","AAM","energy","filler","noun",16,0,"notNoun",0,1149
"1826","AAM19","AAM","engine","filler","noun",46,1,"noun",1,2009
"1827","AAM19","AAM","enroll","filler","notNoun",82,0,"notNoun",1,1273
"1828","AAM19","AAM","eternal","filler","notNoun",67,0,"notNoun",1,1705
"1829","AAM19","AAM","evolve","filler","notNoun",18,0,"notNoun",1,1035
"1830","AAM19","AAM","failure","filler","noun",97,0,"notNoun",0,924
"1832","AAM19","AAM","felony","filler","noun",34,0,"notNoun",0,1293
"1833","AAM19","AAM","freeze","filler","notNoun",2,0,"notNoun",1,1401
"1834","AAM19","AAM","fumble","filler","notNoun",0,0,"notNoun",1,1146
"1835","AAM19","AAM","garden","filler","noun",44,1,"noun",1,1454
"1836","AAM19","AAM","gasolinestep11","critical","noun",69,1,"noun",1,1364
"1837","AAM19","AAM","global","filler","notNoun",39,0,"notNoun",1,1774
"1838","AAM19","AAM","grapple","filler","notNoun",52,0,"notNoun",1,716
"1839","AAM19","AAM","guilty","filler","notNoun",31,0,"notNoun",1,934
"1840","AAM19","AAM","gullible","filler","notNoun",73,0,"notNoun",1,1135
"1841","AAM19","AAM","hamburger","filler","noun",66,1,"noun",1,1370
"1842","AAM19","AAM","harmful","filler","notNoun",49,0,"notNoun",1,1096
